[{"rt":3425,"response":{"subject_id":"88"},"trial_type":"survey-number","trial_index":0,"time_elapsed":3429,"internal_node_id":"0.0-0.0","subject_id":"88"},{"stimulus":"\n        <p>Welcome and thank you for participating in this study!</p>\n        <br>\n        <p>In each trial, you will predict whether there will be more\n            <span class=\"RED\">RED</span> or\n            <span class=\"BLACK\">BLACK</span> cards.</p>\n        <p>Afterwards, on the next slide, a deck of 5 cards will appear.</p>\n        <br>\n        <p>Each card has a 50% chance of appearing as either color.</p>\n        <p>If you correctly predicted the color of most of the cards, you win the round.</p>\n        <p>Otherwise, you lose the round.</p>\n        <br>\n        <p>The next few slides will serve as a tutorial.</p>\n        <br>\n        <p>Press any key to move on to the next slide.</p>\n      ","rt":780,"response":"s","trial_type":"html-keyboard-response","trial_index":1,"time_elapsed":3430,"internal_node_id":"0.0-1.0","subject_id":"88"},{"stimulus":"\n        <p>We will now go through <strong>2</strong> practice rounds.</p>\n        <p>On the next slide, you will see the words\n          “<span class=\"RED\">RED</span>” and\n          “<span class=\"BLACK\">BLACK</span>”.</p>\n        <p>Click ← on your keyboard to choose\n          “<span class=\"RED\">RED</span>” or → to choose\n          “<span class=\"BLACK\">BLACK</span>”.</p>\n        <br>\n        <p>Please try to stay focused on the fixation cross in the center and reduce blinking during trials.</p>\n        <p>Press any key to move on to the next slide.</p>\n      ","rt":456,"response":"v","phase":"practice-1","trial_type":"html-keyboard-response","trial_index":2,"time_elapsed":3430,"internal_node_id":"0.0-2.0-0.0","subject_id":"88"},{"stimulus":"\n        <div class=\"choice_container\" style=\"width: 600px; display: flex; justify-content: space-between; align-items: center;\">\n          <div class=\"RED\" style=\"text-align: right;\">RED</div>\n          <div class=\"BLACK\" style=\"text-align: left;\">BLACK</div>\n        </div>\n        <div class=\"fixation\">+</div>\n      ","rt":573,"response":"ArrowLeft","phase":"practice-1","task":"choice_response","red":"ArrowLeft","trial_type":"html-keyboard-response","trial_index":3,"time_elapsed":3430,"internal_node_id":"0.0-2.0-1.0","subject_id":"88","color":"red"},{"stimulus":"\n          <div class=\"show_choice_container\">\n            <div class=\"card deg-0\" style=\"background: black;\"></div>\n            <p style=\"margin:0;\">Chosen option: <span class=\"BLACK\">BLACK</span></p>\n          </div>\n          <div class=\"fixation\">+</div>\n          ","rt":null,"response":null,"phase":"practice-1","trial_type":"html-keyboard-response","trial_index":4,"time_elapsed":3432,"internal_node_id":"0.0-2.0-2.0","subject_id":"88"},{"stimulus":"\n        <p>Great!</p>\n        <p>On the following slide, you will see a deck of 5 cards.</p>\n        <p>The color of each card will be automatically revealed one by one.</p>\n        <br>\n        <p>If more cards in the deck are in your chosen color than the other color, you win this round.</p>\n        <p>Otherwise, you lose this round.</p>\n        <br>\n        <p>Press any key to move on to the next slide.</p>\n      ","rt":899,"response":"q","phase":"practice-1","trial_type":"html-keyboard-response","trial_index":5,"time_elapsed":3432,"internal_node_id":"0.0-2.0-3.0","subject_id":"88"},{"stimulus":"<div class =\"card_deck\">\n              <div class =\"card deg-0\" style=\"background: grey\"></div>\n              <div class =\"card deg-72\" style=\"background: grey\"></div>\n              <div class =\"card deg-144\" style=\"background: grey\"></div>\n              <div class =\"card deg-216\" style=\"background: grey\"></div>\n              <div class =\"card deg-288\" style=\"background: grey\"></div>\n            </div>\n            <div class=\"fixation\">+</div>","rt":null,"response":null,"phase":"practice-1","trial_type":"html-keyboard-response","trial_index":6,"time_elapsed":3433,"internal_node_id":"0.0-2.0-4.0-0.0","subject_id":"88"},{"stimulus":"<div class =\"card_deck\">\n              <div class =\"card deg-0\" style=\"background: red\"></div>\n              <div class =\"card deg-72\" style=\"background: grey\"></div>\n              <div class =\"card deg-144\" style=\"background: grey\"></div>\n              <div class =\"card deg-216\" style=\"background: grey\"></div>\n              <div class =\"card deg-288\" style=\"background: grey\"></div>\n            </div>\n            <div class=\"fixation\">+</div>\n            <div class=\"eegtrigger\"></div>","rt":null,"response":null,"phase":"practice-1","task":"reveal","eeg_event_id":1,"card":1,"color":"red","participant_choice":"red","card_value":1,"wins_so_far":0,"trial_type":"html-keyboard-response","trial_index":7,"time_elapsed":3435,"internal_node_id":"0.0-2.0-4.0-1.0","subject_id":"88"},{"stimulus":"<div class =\"card_deck\">\n              <div class =\"card deg-0\" style=\"background: red\"></div>\n              <div class =\"card deg-72\" style=\"background: red\"></div>\n              <div class =\"card deg-144\" style=\"background: grey\"></div>\n              <div class =\"card deg-216\" style=\"background: grey\"></div>\n              <div class =\"card deg-288\" style=\"background: grey\"></div>\n            </div>\n            <div class=\"fixation\">+</div>\n            <div class=\"eegtrigger\"></div>","rt":null,"response":null,"phase":"practice-1","task":"reveal","eeg_event_id":2,"card":2,"color":"red","participant_choice":"red","card_value":1,"wins_so_far":1,"trial_type":"html-keyboard-response","trial_index":8,"time_elapsed":3436,"internal_node_id":"0.0-2.0-4.0-2.0","subject_id":"88"},{"stimulus":"<div class =\"card_deck\">\n              <div class =\"card deg-0\" style=\"background: red\"></div>\n              <div class =\"card deg-72\" style=\"background: red\"></div>\n              <div class =\"card deg-144\" style=\"background: red\"></div>\n              <div class =\"card deg-216\" style=\"background: grey\"></div>\n              <div class =\"card deg-288\" style=\"background: grey\"></div>\n            </div>\n            <div class=\"fixation\">+</div>\n            <div class=\"eegtrigger\"></div>","rt":null,"response":null,"phase":"practice-1","task":"reveal","eeg_event_id":3,"card":3,"color":"red","participant_choice":"red","card_value":1,"wins_so_far":2,"trial_type":"html-keyboard-response","trial_index":9,"time_elapsed":3438,"internal_node_id":"0.0-2.0-4.0-3.0","subject_id":"88"},{"stimulus":"<div class =\"card_deck\">\n              <div class =\"card deg-0\" style=\"background: red\"></div>\n              <div class =\"card deg-72\" style=\"background: red\"></div>\n              <div class =\"card deg-144\" style=\"background: red\"></div>\n              <div class =\"card deg-216\" style=\"background: black\"></div>\n              <div class =\"card deg-288\" style=\"background: grey\"></div>\n            </div>\n            <div class=\"fixation\">+</div>\n            <div class=\"eegtrigger\"></div>","rt":null,"response":null,"phase":"practice-1","task":"reveal","eeg_event_id":4,"card":4,"color":"black","participant_choice":"red","card_value":0,"wins_so_far":3,"trial_type":"html-keyboard-response","trial_index":10,"time_elapsed":3439,"internal_node_id":"0.0-2.0-4.0-4.0","subject_id":"88"},{"stimulus":"<div class =\"card_deck\">\n              <div class =\"card deg-0\" style=\"background: red\"></div>\n              <div class =\"card deg-72\" style=\"background: red\"></div>\n              <div class =\"card deg-144\" style=\"background: red\"></div>\n              <div class =\"card deg-216\" style=\"background: black\"></div>\n              <div class =\"card deg-288\" style=\"background: black\"></div>\n            </div>\n            <div class=\"fixation\">+</div>\n            <div class=\"eegtrigger\"></div>","rt":null,"response":null,"phase":"practice-1","task":"reveal","eeg_event_id":5,"card":5,"color":"black","participant_choice":"red","card_value":0,"wins_so_far":3,"trial_type":"html-keyboard-response","trial_index":11,"time_elapsed":3441,"internal_node_id":"0.0-2.0-4.0-5.0","subject_id":"88"},{"stimulus":"\n          <p>Whoops, better luck next time!</p>\n          <br>\n          <p>The next practice trial will be identical to the previous, but you will not be given any instructions.</p>\n          <br>\n          <p>Please stay focused on the fixation point “<strong>+</strong>” at the center and blink as little as possible.</p>\n          ","rt":517,"response":"i","phase":"practice-1","trial_type":"html-keyboard-response","trial_index":12,"time_elapsed":3441,"internal_node_id":"0.0-2.0-5.0","subject_id":"88"},{"stimulus":"\n        <div class=\"choice_container\" style=\"width: 600px; display: flex; justify-content: space-between; align-items: center;\">\n          <div class=\"RED\" style=\"text-align: right;\">RED</div>\n          <div class=\"BLACK\" style=\"text-align: left;\">BLACK</div>\n        </div>\n        <div class=\"fixation\">+</div>\n      ","rt":534,"response":"ArrowLeft","phase":"practice-2","task":"choice_response","red":"ArrowLeft","trial_type":"html-keyboard-response","trial_index":13,"time_elapsed":3441,"internal_node_id":"0.0-3.0-0.0","subject_id":"88","color":"red"},{"stimulus":"\n          <div class=\"show_choice_container\">\n            <div class=\"card deg-0\" style=\"background: black;\"></div>\n            <p style=\"margin:0;\">Chosen option: <span class=\"BLACK\">BLACK</span></p>\n          </div>\n          <div class=\"fixation\">+</div>\n          ","rt":null,"response":null,"phase":"practice-2","trial_type":"html-keyboard-response","trial_index":14,"time_elapsed":3442,"internal_node_id":"0.0-3.0-1.0","subject_id":"88"},{"stimulus":"<div class =\"card_deck\">\n              <div class =\"card deg-0\" style=\"background: grey\"></div>\n              <div class =\"card deg-72\" style=\"background: grey\"></div>\n              <div class =\"card deg-144\" style=\"background: grey\"></div>\n              <div class =\"card deg-216\" style=\"background: grey\"></div>\n              <div class =\"card deg-288\" style=\"background: grey\"></div>\n            </div>\n            <div class=\"fixation\">+</div>","rt":null,"response":null,"phase":"practice-2","trial_type":"html-keyboard-response","trial_index":15,"time_elapsed":3444,"internal_node_id":"0.0-3.0-2.0-0.0","subject_id":"88"},{"stimulus":"<div class =\"card_deck\">\n              <div class =\"card deg-0\" style=\"background: black\"></div>\n              <div class =\"card deg-72\" style=\"background: grey\"></div>\n              <div class =\"card deg-144\" style=\"background: grey\"></div>\n              <div class =\"card deg-216\" style=\"background: grey\"></div>\n              <div class =\"card deg-288\" style=\"background: grey\"></div>\n            </div>\n            <div class=\"fixation\">+</div>\n            <div class=\"eegtrigger\"></div>","rt":null,"response":null,"phase":"practice-2","task":"reveal","eeg_event_id":6,"card":1,"color":"black","participant_choice":"red","card_value":0,"wins_so_far":0,"trial_type":"html-keyboard-response","trial_index":16,"time_elapsed":3446,"internal_node_id":"0.0-3.0-2.0-1.0","subject_id":"88"},{"stimulus":"<div class =\"card_deck\">\n              <div class =\"card deg-0\" style=\"background: black\"></div>\n              <div class =\"card deg-72\" style=\"background: black\"></div>\n              <div class =\"card deg-144\" style=\"background: grey\"></div>\n              <div class =\"card deg-216\" style=\"background: grey\"></div>\n              <div class =\"card deg-288\" style=\"background: grey\"></div>\n            </div>\n            <div class=\"fixation\">+</div>\n            <div class=\"eegtrigger\"></div>","rt":null,"response":null,"phase":"practice-2","task":"reveal","eeg_event_id":7,"card":2,"color":"black","participant_choice":"red","card_value":0,"wins_so_far":0,"trial_type":"html-keyboard-response","trial_index":17,"time_elapsed":3449,"internal_node_id":"0.0-3.0-2.0-2.0","subject_id":"88"},{"stimulus":"<div class =\"card_deck\">\n              <div class =\"card deg-0\" style=\"background: black\"></div>\n              <div class =\"card deg-72\" style=\"background: black\"></div>\n              <div class =\"card deg-144\" style=\"background: red\"></div>\n              <div class =\"card deg-216\" style=\"background: grey\"></div>\n              <div class =\"card deg-288\" style=\"background: grey\"></div>\n            </div>\n            <div class=\"fixation\">+</div>\n            <div class=\"eegtrigger\"></div>","rt":null,"response":null,"phase":"practice-2","task":"reveal","eeg_event_id":8,"card":3,"color":"red","participant_choice":"red","card_value":1,"wins_so_far":0,"trial_type":"html-keyboard-response","trial_index":18,"time_elapsed":3453,"internal_node_id":"0.0-3.0-2.0-3.0","subject_id":"88"},{"stimulus":"<div class =\"card_deck\">\n              <div class =\"card deg-0\" style=\"background: black\"></div>\n              <div class =\"card deg-72\" style=\"background: black\"></div>\n              <div class =\"card deg-144\" style=\"background: red\"></div>\n              <div class =\"card deg-216\" style=\"background: red\"></div>\n              <div class =\"card deg-288\" style=\"background: grey\"></div>\n            </div>\n            <div class=\"fixation\">+</div>\n            <div class=\"eegtrigger\"></div>","rt":null,"response":null,"phase":"practice-2","task":"reveal","eeg_event_id":9,"card":4,"color":"red","participant_choice":"red","card_value":1,"wins_so_far":1,"trial_type":"html-keyboard-response","trial_index":19,"time_elapsed":3456,"internal_node_id":"0.0-3.0-2.0-4.0","subject_id":"88"},{"stimulus":"<div class =\"card_deck\">\n              <div class =\"card deg-0\" style=\"background: black\"></div>\n              <div class =\"card deg-72\" style=\"background: black\"></div>\n              <div class =\"card deg-144\" style=\"background: red\"></div>\n              <div class =\"card deg-216\" style=\"background: red\"></div>\n              <div class =\"card deg-288\" style=\"background: black\"></div>\n            </div>\n            <div class=\"fixation\">+</div>\n            <div class=\"eegtrigger\"></div>","rt":null,"response":null,"phase":"practice-2","task":"reveal","eeg_event_id":10,"card":5,"color":"black","participant_choice":"red","card_value":0,"wins_so_far":2,"trial_type":"html-keyboard-response","trial_index":20,"time_elapsed":3459,"internal_node_id":"0.0-3.0-2.0-5.0","subject_id":"88"},{"stimulus":"\n          <p>Whoops, better luck next time!</p>\n          <br>\n          <p>You will now begin with the real trials.</p>\n          ","rt":501,"response":"f","phase":"practice-2","trial_type":"html-keyboard-response","trial_index":21,"time_elapsed":3459,"internal_node_id":"0.0-3.0-3.0","subject_id":"88"},{"stimulus":"\n        <p>Block: <strong>1</strong></p>\n        ","rt":null,"response":null,"phase":"test","trial_type":"html-keyboard-response","trial_index":22,"time_elapsed":3459,"internal_node_id":"0.0-4.0-0.0","subject_id":"88"},{"stimulus":"\n        <p>Trial: <strong>1</strong></p>\n        <br>\n        <p>Place your bet on the next slide.</p>\n        ","rt":null,"response":null,"phase":"test","trial_type":"html-keyboard-response","trial_index":23,"time_elapsed":3460,"internal_node_id":"0.0-4.0-1.0-0.0","subject_id":"88"},{"stimulus":"\n        <div class=\"choice_container\" style=\"width: 600px; display: flex; justify-content: space-between; align-items: center;\">\n          <div class=\"RED\" style=\"text-align: right;\">RED</div>\n          <div class=\"BLACK\" style=\"text-align: left;\">BLACK</div>\n        </div>\n        <div class=\"fixation\">+</div>\n      ","rt":854,"response":"ArrowLeft","phase":"test","task":"choice_response","red":"ArrowLeft","trial_type":"html-keyboard-response","trial_index":24,"time_elapsed":3460,"internal_node_id":"0.0-4.0-1.0-1.0","subject_id":"88","color":"red"},{"stimulus":"\n          <div class=\"show_choice_container\">\n            <div class=\"card deg-0\" style=\"background: black;\"></div>\n            <p style=\"margin:0;\">Chosen option: <span class=\"BLACK\">BLACK</span></p>\n          </div>\n          <div class=\"fixation\">+</div>\n          ","rt":null,"response":null,"phase":"test","trial_type":"html-keyboard-response","trial_index":25,"time_elapsed":3460,"internal_node_id":"0.0-4.0-1.0-2.0","subject_id":"88"},{"stimulus":"<div class =\"card_deck\">\n              <div class =\"card deg-0\" style=\"background: grey\"></div>\n              <div class =\"card deg-72\" style=\"background: grey\"></div>\n              <div class =\"card deg-144\" style=\"background: grey\"></div>\n              <div class =\"card deg-216\" style=\"background: grey\"></div>\n              <div class =\"card deg-288\" style=\"background: grey\"></div>\n            </div>\n            <div class=\"fixation\">+</div>","rt":null,"response":null,"phase":"test","trial_type":"html-keyboard-response","trial_index":26,"time_elapsed":3461,"internal_node_id":"0.0-4.0-1.0-3.0-0.0","subject_id":"88"},{"stimulus":"<div class =\"card_deck\">\n              <div class =\"card deg-0\" style=\"background: black\"></div>\n              <div class =\"card deg-72\" style=\"background: grey\"></div>\n              <div class =\"card deg-144\" style=\"background: grey\"></div>\n              <div class =\"card deg-216\" style=\"background: grey\"></div>\n              <div class =\"card deg-288\" style=\"background: grey\"></div>\n            </div>\n            <div class=\"fixation\">+</div>\n            <div class=\"eegtrigger\"></div>","rt":null,"response":null,"phase":"test","task":"reveal","eeg_event_id":11,"card":1,"color":"black","sequence_id":8,"outcome":0,"participant_choice":"red","card_value":0,"wins_so_far":0,"trial_type":"html-keyboard-response","trial_index":27,"time_elapsed":3462,"internal_node_id":"0.0-4.0-1.0-3.0-1.0","subject_id":"88"},{"stimulus":"<div class =\"card_deck\">\n              <div class =\"card deg-0\" style=\"background: black\"></div>\n              <div class =\"card deg-72\" style=\"background: red\"></div>\n              <div class =\"card deg-144\" style=\"background: grey\"></div>\n              <div class =\"card deg-216\" style=\"background: grey\"></div>\n              <div class =\"card deg-288\" style=\"background: grey\"></div>\n            </div>\n            <div class=\"fixation\">+</div>\n            <div class=\"eegtrigger\"></div>","rt":null,"response":null,"phase":"test","task":"reveal","eeg_event_id":12,"card":2,"color":"red","sequence_id":8,"outcome":0,"participant_choice":"red","card_value":1,"wins_so_far":0,"trial_type":"html-keyboard-response","trial_index":28,"time_elapsed":3462,"internal_node_id":"0.0-4.0-1.0-3.0-2.0","subject_id":"88"},{"stimulus":"<div class =\"card_deck\">\n              <div class =\"card deg-0\" style=\"background: black\"></div>\n              <div class =\"card deg-72\" style=\"background: red\"></div>\n              <div class =\"card deg-144\" style=\"background: black\"></div>\n              <div class =\"card deg-216\" style=\"background: grey\"></div>\n              <div class =\"card deg-288\" style=\"background: grey\"></div>\n            </div>\n            <div class=\"fixation\">+</div>\n            <div class=\"eegtrigger\"></div>","rt":null,"response":null,"phase":"test","task":"reveal","eeg_event_id":13,"card":3,"color":"black","sequence_id":8,"outcome":0,"participant_choice":"red","card_value":0,"wins_so_far":1,"trial_type":"html-keyboard-response","trial_index":29,"time_elapsed":3462,"internal_node_id":"0.0-4.0-1.0-3.0-3.0","subject_id":"88"},{"stimulus":"<div class =\"card_deck\">\n              <div class =\"card deg-0\" style=\"background: black\"></div>\n              <div class =\"card deg-72\" style=\"background: red\"></div>\n              <div class =\"card deg-144\" style=\"background: black\"></div>\n              <div class =\"card deg-216\" style=\"background: red\"></div>\n              <div class =\"card deg-288\" style=\"background: grey\"></div>\n            </div>\n            <div class=\"fixation\">+</div>\n            <div class=\"eegtrigger\"></div>","rt":null,"response":null,"phase":"test","task":"reveal","eeg_event_id":14,"card":4,"color":"red","sequence_id":8,"outcome":0,"participant_choice":"red","card_value":1,"wins_so_far":1,"trial_type":"html-keyboard-response","trial_index":30,"time_elapsed":3462,"internal_node_id":"0.0-4.0-1.0-3.0-4.0","subject_id":"88"},{"stimulus":"<div class =\"card_deck\">\n              <div class =\"card deg-0\" style=\"background: black\"></div>\n              <div class =\"card deg-72\" style=\"background: red\"></div>\n              <div class =\"card deg-144\" style=\"background: black\"></div>\n              <div class =\"card deg-216\" style=\"background: red\"></div>\n              <div class =\"card deg-288\" style=\"background: red\"></div>\n            </div>\n            <div class=\"fixation\">+</div>\n            <div class=\"eegtrigger\"></div>","rt":null,"response":null,"phase":"test","task":"reveal","eeg_event_id":15,"card":5,"color":"red","sequence_id":8,"outcome":0,"participant_choice":"red","card_value":1,"wins_so_far":2,"trial_type":"html-keyboard-response","trial_index":31,"time_elapsed":3463,"internal_node_id":"0.0-4.0-1.0-3.0-5.0","subject_id":"88"},{"stimulus":"\n          <div class=\"info_container\" style=\"position: relative; margin: auto; display: flex; justify-content: space-between;\">\n            <div class=\"trial\" style=\"text-align: center;\">\n              <p>You won 20 cents!</p>\n            </div>\n          </div>","rt":null,"response":null,"phase":"test","trial_type":"html-keyboard-response","trial_index":32,"time_elapsed":3463,"internal_node_id":"0.0-4.0-1.0-4.0","subject_id":"88"},{"stimulus":"\n        <p>Trial: <strong>2</strong></p>\n        <br>\n        <p>Place your bet on the next slide.</p>\n        ","rt":null,"response":null,"phase":"test","trial_type":"html-keyboard-response","trial_index":33,"time_elapsed":3463,"internal_node_id":"0.0-4.0-1.0-0.1","subject_id":"88"},{"stimulus":"\n        <div class=\"choice_container\" style=\"width: 600px; display: flex; justify-content: space-between; align-items: center;\">\n          <div class=\"RED\" style=\"text-align: right;\">RED</div>\n          <div class=\"BLACK\" style=\"text-align: left;\">BLACK</div>\n        </div>\n        <div class=\"fixation\">+</div>\n      ","rt":541,"response":"ArrowRight","phase":"test","task":"choice_response","red":"ArrowLeft","trial_type":"html-keyboard-response","trial_index":34,"time_elapsed":3463,"internal_node_id":"0.0-4.0-1.0-1.1","subject_id":"88","color":"black"},{"stimulus":"\n          <div class=\"show_choice_container\">\n            <div class=\"card deg-0\" style=\"background: black;\"></div>\n            <p style=\"margin:0;\">Chosen option: <span class=\"BLACK\">BLACK</span></p>\n          </div>\n          <div class=\"fixation\">+</div>\n          ","rt":null,"response":null,"phase":"test","trial_type":"html-keyboard-response","trial_index":35,"time_elapsed":3464,"internal_node_id":"0.0-4.0-1.0-2.1","subject_id":"88"},{"stimulus":"<div class =\"card_deck\">\n              <div class =\"card deg-0\" style=\"background: grey\"></div>\n              <div class =\"card deg-72\" style=\"background: grey\"></div>\n              <div class =\"card deg-144\" style=\"background: grey\"></div>\n              <div class =\"card deg-216\" style=\"background: grey\"></div>\n              <div class =\"card deg-288\" style=\"background: grey\"></div>\n            </div>\n            <div class=\"fixation\">+</div>","rt":null,"response":null,"phase":"test","trial_type":"html-keyboard-response","trial_index":36,"time_elapsed":3465,"internal_node_id":"0.0-4.0-1.0-3.1-0.1","subject_id":"88"},{"stimulus":"<div class =\"card_deck\">\n              <div class =\"card deg-0\" style=\"background: red\"></div>\n              <div class =\"card deg-72\" style=\"background: grey\"></div>\n              <div class =\"card deg-144\" style=\"background: grey\"></div>\n              <div class =\"card deg-216\" style=\"background: grey\"></div>\n              <div class =\"card deg-288\" style=\"background: grey\"></div>\n            </div>\n            <div class=\"fixation\">+</div>\n            <div class=\"eegtrigger\"></div>","rt":null,"response":null,"phase":"test","task":"reveal","eeg_event_id":16,"card":1,"color":"red","sequence_id":29,"outcome":1,"participant_choice":"black","card_value":0,"wins_so_far":0,"trial_type":"html-keyboard-response","trial_index":37,"time_elapsed":3466,"internal_node_id":"0.0-4.0-1.0-3.1-1.1","subject_id":"88"},{"stimulus":"<div class =\"card_deck\">\n              <div class =\"card deg-0\" style=\"background: red\"></div>\n              <div class =\"card deg-72\" style=\"background: black\"></div>\n              <div class =\"card deg-144\" style=\"background: grey\"></div>\n              <div class =\"card deg-216\" style=\"background: grey\"></div>\n              <div class =\"card deg-288\" style=\"background: grey\"></div>\n            </div>\n            <div class=\"fixation\">+</div>\n            <div class=\"eegtrigger\"></div>","rt":null,"response":null,"phase":"test","task":"reveal","eeg_event_id":17,"card":2,"color":"black","sequence_id":29,"outcome":1,"participant_choice":"black","card_value":1,"wins_so_far":0,"trial_type":"html-keyboard-response","trial_index":38,"time_elapsed":3466,"internal_node_id":"0.0-4.0-1.0-3.1-2.1","subject_id":"88"},{"stimulus":"<div class =\"card_deck\">\n              <div class =\"card deg-0\" style=\"background: red\"></div>\n              <div class =\"card deg-72\" style=\"background: black\"></div>\n              <div class =\"card deg-144\" style=\"background: red\"></div>\n              <div class =\"card deg-216\" style=\"background: grey\"></div>\n              <div class =\"card deg-288\" style=\"background: grey\"></div>\n            </div>\n            <div class=\"fixation\">+</div>\n            <div class=\"eegtrigger\"></div>","rt":null,"response":null,"phase":"test","task":"reveal","eeg_event_id":18,"card":3,"color":"red","sequence_id":29,"outcome":1,"participant_choice":"black","card_value":0,"wins_so_far":1,"trial_type":"html-keyboard-response","trial_index":39,"time_elapsed":3467,"internal_node_id":"0.0-4.0-1.0-3.1-3.1","subject_id":"88"},{"stimulus":"<div class =\"card_deck\">\n              <div class =\"card deg-0\" style=\"background: red\"></div>\n              <div class =\"card deg-72\" style=\"background: black\"></div>\n              <div class =\"card deg-144\" style=\"background: red\"></div>\n              <div class =\"card deg-216\" style=\"background: red\"></div>\n              <div class =\"card deg-288\" style=\"background: grey\"></div>\n            </div>\n            <div class=\"fixation\">+</div>\n            <div class=\"eegtrigger\"></div>","rt":null,"response":null,"phase":"test","task":"reveal","eeg_event_id":19,"card":4,"color":"red","sequence_id":29,"outcome":1,"participant_choice":"black","card_value":0,"wins_so_far":1,"trial_type":"html-keyboard-response","trial_index":40,"time_elapsed":3467,"internal_node_id":"0.0-4.0-1.0-3.1-4.1","subject_id":"88"},{"stimulus":"<div class =\"card_deck\">\n              <div class =\"card deg-0\" style=\"background: red\"></div>\n              <div class =\"card deg-72\" style=\"background: black\"></div>\n              <div class =\"card deg-144\" style=\"background: red\"></div>\n              <div class =\"card deg-216\" style=\"background: red\"></div>\n              <div class =\"card deg-288\" style=\"background: black\"></div>\n            </div>\n            <div class=\"fixation\">+</div>\n            <div class=\"eegtrigger\"></div>","rt":null,"response":null,"phase":"test","task":"reveal","eeg_event_id":20,"card":5,"color":"black","sequence_id":29,"outcome":1,"participant_choice":"black","card_value":1,"wins_so_far":1,"trial_type":"html-keyboard-response","trial_index":41,"time_elapsed":3468,"internal_node_id":"0.0-4.0-1.0-3.1-5.1","subject_id":"88"},{"stimulus":"\n          <div class=\"info_container\" style=\"position: relative; margin: auto; display: flex; justify-content: space-between;\">\n            <div class=\"trial\" style=\"text-align: center;\">\n              <p>You didn't win this round.</p></div>\n            </div>\n          </div>","rt":null,"response":null,"phase":"test","trial_type":"html-keyboard-response","trial_index":42,"time_elapsed":3468,"internal_node_id":"0.0-4.0-1.0-4.1","subject_id":"88"},{"stimulus":"\n        <p>Trial: <strong>3</strong></p>\n        <br>\n        <p>Place your bet on the next slide.</p>\n        ","rt":null,"response":null,"phase":"test","trial_type":"html-keyboard-response","trial_index":43,"time_elapsed":3468,"internal_node_id":"0.0-4.0-1.0-0.2","subject_id":"88"},{"stimulus":"\n        <div class=\"choice_container\" style=\"width: 600px; display: flex; justify-content: space-between; align-items: center;\">\n          <div class=\"RED\" style=\"text-align: right;\">RED</div>\n          <div class=\"BLACK\" style=\"text-align: left;\">BLACK</div>\n        </div>\n        <div class=\"fixation\">+</div>\n      ","rt":575,"response":"ArrowRight","phase":"test","task":"choice_response","red":"ArrowLeft","trial_type":"html-keyboard-response","trial_index":44,"time_elapsed":3468,"internal_node_id":"0.0-4.0-1.0-1.2","subject_id":"88","color":"black"},{"stimulus":"\n          <div class=\"show_choice_container\">\n            <div class=\"card deg-0\" style=\"background: black;\"></div>\n            <p style=\"margin:0;\">Chosen option: <span class=\"BLACK\">BLACK</span></p>\n          </div>\n          <div class=\"fixation\">+</div>\n          ","rt":null,"response":null,"phase":"test","trial_type":"html-keyboard-response","trial_index":45,"time_elapsed":3469,"internal_node_id":"0.0-4.0-1.0-2.2","subject_id":"88"},{"stimulus":"<div class =\"card_deck\">\n              <div class =\"card deg-0\" style=\"background: grey\"></div>\n              <div class =\"card deg-72\" style=\"background: grey\"></div>\n              <div class =\"card deg-144\" style=\"background: grey\"></div>\n              <div class =\"card deg-216\" style=\"background: grey\"></div>\n              <div class =\"card deg-288\" style=\"background: grey\"></div>\n            </div>\n            <div class=\"fixation\">+</div>","rt":null,"response":null,"phase":"test","trial_type":"html-keyboard-response","trial_index":46,"time_elapsed":3470,"internal_node_id":"0.0-4.0-1.0-3.2-0.2","subject_id":"88"},{"stimulus":"<div class =\"card_deck\">\n              <div class =\"card deg-0\" style=\"background: red\"></div>\n              <div class =\"card deg-72\" style=\"background: grey\"></div>\n              <div class =\"card deg-144\" style=\"background: grey\"></div>\n              <div class =\"card deg-216\" style=\"background: grey\"></div>\n              <div class =\"card deg-288\" style=\"background: grey\"></div>\n            </div>\n            <div class=\"fixation\">+</div>\n            <div class=\"eegtrigger\"></div>","rt":null,"response":null,"phase":"test","task":"reveal","eeg_event_id":21,"card":1,"color":"red","sequence_id":10,"outcome":0,"participant_choice":"black","card_value":0,"wins_so_far":0,"trial_type":"html-keyboard-response","trial_index":47,"time_elapsed":3470,"internal_node_id":"0.0-4.0-1.0-3.2-1.2","subject_id":"88"},{"stimulus":"<div class =\"card_deck\">\n              <div class =\"card deg-0\" style=\"background: red\"></div>\n              <div class =\"card deg-72\" style=\"background: black\"></div>\n              <div class =\"card deg-144\" style=\"background: grey\"></div>\n              <div class =\"card deg-216\" style=\"background: grey\"></div>\n              <div class =\"card deg-288\" style=\"background: grey\"></div>\n            </div>\n            <div class=\"fixation\">+</div>\n            <div class=\"eegtrigger\"></div>","rt":null,"response":null,"phase":"test","task":"reveal","eeg_event_id":22,"card":2,"color":"black","sequence_id":10,"outcome":0,"participant_choice":"black","card_value":1,"wins_so_far":0,"trial_type":"html-keyboard-response","trial_index":48,"time_elapsed":3471,"internal_node_id":"0.0-4.0-1.0-3.2-2.2","subject_id":"88"},{"stimulus":"<div class =\"card_deck\">\n              <div class =\"card deg-0\" style=\"background: red\"></div>\n              <div class =\"card deg-72\" style=\"background: black\"></div>\n              <div class =\"card deg-144\" style=\"background: black\"></div>\n              <div class =\"card deg-216\" style=\"background: grey\"></div>\n              <div class =\"card deg-288\" style=\"background: grey\"></div>\n            </div>\n            <div class=\"fixation\">+</div>\n            <div class=\"eegtrigger\"></div>","rt":null,"response":null,"phase":"test","task":"reveal","eeg_event_id":23,"card":3,"color":"black","sequence_id":10,"outcome":0,"participant_choice":"black","card_value":1,"wins_so_far":1,"trial_type":"html-keyboard-response","trial_index":49,"time_elapsed":3472,"internal_node_id":"0.0-4.0-1.0-3.2-3.2","subject_id":"88"},{"stimulus":"<div class =\"card_deck\">\n              <div class =\"card deg-0\" style=\"background: red\"></div>\n              <div class =\"card deg-72\" style=\"background: black\"></div>\n              <div class =\"card deg-144\" style=\"background: black\"></div>\n              <div class =\"card deg-216\" style=\"background: black\"></div>\n              <div class =\"card deg-288\" style=\"background: grey\"></div>\n            </div>\n            <div class=\"fixation\">+</div>\n            <div class=\"eegtrigger\"></div>","rt":null,"response":null,"phase":"test","task":"reveal","eeg_event_id":24,"card":4,"color":"black","sequence_id":10,"outcome":0,"participant_choice":"black","card_value":1,"wins_so_far":2,"trial_type":"html-keyboard-response","trial_index":50,"time_elapsed":3472,"internal_node_id":"0.0-4.0-1.0-3.2-4.2","subject_id":"88"},{"stimulus":"<div class =\"card_deck\">\n              <div class =\"card deg-0\" style=\"background: red\"></div>\n              <div class =\"card deg-72\" style=\"background: black\"></div>\n              <div class =\"card deg-144\" style=\"background: black\"></div>\n              <div class =\"card deg-216\" style=\"background: black\"></div>\n              <div class =\"card deg-288\" style=\"background: red\"></div>\n            </div>\n            <div class=\"fixation\">+</div>\n            <div class=\"eegtrigger\"></div>","rt":null,"response":null,"phase":"test","task":"reveal","eeg_event_id":25,"card":5,"color":"red","sequence_id":10,"outcome":0,"participant_choice":"black","card_value":0,"wins_so_far":3,"trial_type":"html-keyboard-response","trial_index":51,"time_elapsed":3472,"internal_node_id":"0.0-4.0-1.0-3.2-5.2","subject_id":"88"},{"stimulus":"\n          <div class=\"info_container\" style=\"position: relative; margin: auto; display: flex; justify-content: space-between;\">\n            <div class=\"trial\" style=\"text-align: center;\">\n              <p>You won 20 cents!</p>\n            </div>\n          </div>","rt":null,"response":null,"phase":"test","trial_type":"html-keyboard-response","trial_index":52,"time_elapsed":3472,"internal_node_id":"0.0-4.0-1.0-4.2","subject_id":"88"},{"stimulus":"\n        <p>Trial: <strong>4</strong></p>\n        <br>\n        <p>Place your bet on the next slide.</p>\n        ","rt":null,"response":null,"phase":"test","trial_type":"html-keyboard-response","trial_index":53,"time_elapsed":3472,"internal_node_id":"0.0-4.0-1.0-0.3","subject_id":"88"},{"stimulus":"\n        <div class=\"choice_container\" style=\"width: 600px; display: flex; justify-content: space-between; align-items: center;\">\n          <div class=\"RED\" style=\"text-align: right;\">RED</div>\n          <div class=\"BLACK\" style=\"text-align: left;\">BLACK</div>\n        </div>\n        <div class=\"fixation\">+</div>\n      ","rt":737,"response":"ArrowRight","phase":"test","task":"choice_response","red":"ArrowLeft","trial_type":"html-keyboard-response","trial_index":54,"time_elapsed":3472,"internal_node_id":"0.0-4.0-1.0-1.3","subject_id":"88","color":"black"},{"stimulus":"\n          <div class=\"show_choice_container\">\n            <div class=\"card deg-0\" style=\"background: black;\"></div>\n            <p style=\"margin:0;\">Chosen option: <span class=\"BLACK\">BLACK</span></p>\n          </div>\n          <div class=\"fixation\">+</div>\n          ","rt":null,"response":null,"phase":"test","trial_type":"html-keyboard-response","trial_index":55,"time_elapsed":3473,"internal_node_id":"0.0-4.0-1.0-2.3","subject_id":"88"},{"stimulus":"<div class =\"card_deck\">\n              <div class =\"card deg-0\" style=\"background: grey\"></div>\n              <div class =\"card deg-72\" style=\"background: grey\"></div>\n              <div class =\"card deg-144\" style=\"background: grey\"></div>\n              <div class =\"card deg-216\" style=\"background: grey\"></div>\n              <div class =\"card deg-288\" style=\"background: grey\"></div>\n            </div>\n            <div class=\"fixation\">+</div>","rt":null,"response":null,"phase":"test","trial_type":"html-keyboard-response","trial_index":56,"time_elapsed":3474,"internal_node_id":"0.0-4.0-1.0-3.3-0.3","subject_id":"88"},{"stimulus":"<div class =\"card_deck\">\n              <div class =\"card deg-0\" style=\"background: black\"></div>\n              <div class =\"card deg-72\" style=\"background: grey\"></div>\n              <div class =\"card deg-144\" style=\"background: grey\"></div>\n              <div class =\"card deg-216\" style=\"background: grey\"></div>\n              <div class =\"card deg-288\" style=\"background: grey\"></div>\n            </div>\n            <div class=\"fixation\">+</div>\n            <div class=\"eegtrigger\"></div>","rt":null,"response":null,"phase":"test","task":"reveal","eeg_event_id":26,"card":1,"color":"black","sequence_id":6,"outcome":0,"participant_choice":"black","card_value":1,"wins_so_far":0,"trial_type":"html-keyboard-response","trial_index":57,"time_elapsed":3474,"internal_node_id":"0.0-4.0-1.0-3.3-1.3","subject_id":"88"},{"stimulus":"<div class =\"card_deck\">\n              <div class =\"card deg-0\" style=\"background: black\"></div>\n              <div class =\"card deg-72\" style=\"background: black\"></div>\n              <div class =\"card deg-144\" style=\"background: grey\"></div>\n              <div class =\"card deg-216\" style=\"background: grey\"></div>\n              <div class =\"card deg-288\" style=\"background: grey\"></div>\n            </div>\n            <div class=\"fixation\">+</div>\n            <div class=\"eegtrigger\"></div>","rt":null,"response":null,"phase":"test","task":"reveal","eeg_event_id":27,"card":2,"color":"black","sequence_id":6,"outcome":0,"participant_choice":"black","card_value":1,"wins_so_far":1,"trial_type":"html-keyboard-response","trial_index":58,"time_elapsed":3475,"internal_node_id":"0.0-4.0-1.0-3.3-2.3","subject_id":"88"},{"stimulus":"<div class =\"card_deck\">\n              <div class =\"card deg-0\" style=\"background: black\"></div>\n              <div class =\"card deg-72\" style=\"background: black\"></div>\n              <div class =\"card deg-144\" style=\"background: black\"></div>\n              <div class =\"card deg-216\" style=\"background: grey\"></div>\n              <div class =\"card deg-288\" style=\"background: grey\"></div>\n            </div>\n            <div class=\"fixation\">+</div>\n            <div class=\"eegtrigger\"></div>","rt":null,"response":null,"phase":"test","task":"reveal","eeg_event_id":28,"card":3,"color":"black","sequence_id":6,"outcome":0,"participant_choice":"black","card_value":1,"wins_so_far":2,"trial_type":"html-keyboard-response","trial_index":59,"time_elapsed":3475,"internal_node_id":"0.0-4.0-1.0-3.3-3.3","subject_id":"88"},{"stimulus":"<div class =\"card_deck\">\n              <div class =\"card deg-0\" style=\"background: black\"></div>\n              <div class =\"card deg-72\" style=\"background: black\"></div>\n              <div class =\"card deg-144\" style=\"background: black\"></div>\n              <div class =\"card deg-216\" style=\"background: black\"></div>\n              <div class =\"card deg-288\" style=\"background: grey\"></div>\n            </div>\n            <div class=\"fixation\">+</div>\n            <div class=\"eegtrigger\"></div>","rt":null,"response":null,"phase":"test","task":"reveal","eeg_event_id":29,"card":4,"color":"black","sequence_id":6,"outcome":0,"participant_choice":"black","card_value":1,"wins_so_far":3,"trial_type":"html-keyboard-response","trial_index":60,"time_elapsed":3475,"internal_node_id":"0.0-4.0-1.0-3.3-4.3","subject_id":"88"},{"stimulus":"<div class =\"card_deck\">\n              <div class =\"card deg-0\" style=\"background: black\"></div>\n              <div class =\"card deg-72\" style=\"background: black\"></div>\n              <div class =\"card deg-144\" style=\"background: black\"></div>\n              <div class =\"card deg-216\" style=\"background: black\"></div>\n              <div class =\"card deg-288\" style=\"background: red\"></div>\n            </div>\n            <div class=\"fixation\">+</div>\n            <div class=\"eegtrigger\"></div>","rt":null,"response":null,"phase":"test","task":"reveal","eeg_event_id":30,"card":5,"color":"red","sequence_id":6,"outcome":0,"participant_choice":"black","card_value":0,"wins_so_far":4,"trial_type":"html-keyboard-response","trial_index":61,"time_elapsed":3475,"internal_node_id":"0.0-4.0-1.0-3.3-5.3","subject_id":"88"},{"stimulus":"\n          <div class=\"info_container\" style=\"position: relative; margin: auto; display: flex; justify-content: space-between;\">\n            <div class=\"trial\" style=\"text-align: center;\">\n              <p>You won 20 cents!</p>\n            </div>\n          </div>","rt":null,"response":null,"phase":"test","trial_type":"html-keyboard-response","trial_index":62,"time_elapsed":3476,"internal_node_id":"0.0-4.0-1.0-4.3","subject_id":"88"},{"stimulus":"\n        <p>Trial: <strong>5</strong></p>\n        <br>\n        <p>Place your bet on the next slide.</p>\n        ","rt":null,"response":null,"phase":"test","trial_type":"html-keyboard-response","trial_index":63,"time_elapsed":3476,"internal_node_id":"0.0-4.0-1.0-0.4","subject_id":"88"},{"stimulus":"\n        <div class=\"choice_container\" style=\"width: 600px; display: flex; justify-content: space-between; align-items: center;\">\n          <div class=\"RED\" style=\"text-align: right;\">RED</div>\n          <div class=\"BLACK\" style=\"text-align: left;\">BLACK</div>\n        </div>\n        <div class=\"fixation\">+</div>\n      ","rt":882,"response":"ArrowLeft","phase":"test","task":"choice_response","red":"ArrowLeft","trial_type":"html-keyboard-response","trial_index":64,"time_elapsed":3476,"internal_node_id":"0.0-4.0-1.0-1.4","subject_id":"88","color":"red"},{"stimulus":"\n          <div class=\"show_choice_container\">\n            <div class=\"card deg-0\" style=\"background: black;\"></div>\n            <p style=\"margin:0;\">Chosen option: <span class=\"BLACK\">BLACK</span></p>\n          </div>\n          <div class=\"fixation\">+</div>\n          ","rt":null,"response":null,"phase":"test","trial_type":"html-keyboard-response","trial_index":65,"time_elapsed":3477,"internal_node_id":"0.0-4.0-1.0-2.4","subject_id":"88"},{"stimulus":"<div class =\"card_deck\">\n              <div class =\"card deg-0\" style=\"background: grey\"></div>\n              <div class =\"card deg-72\" style=\"background: grey\"></div>\n              <div class =\"card deg-144\" style=\"background: grey\"></div>\n              <div class =\"card deg-216\" style=\"background: grey\"></div>\n              <div class =\"card deg-288\" style=\"background: grey\"></div>\n            </div>\n            <div class=\"fixation\">+</div>","rt":null,"response":null,"phase":"test","trial_type":"html-keyboard-response","trial_index":66,"time_elapsed":3478,"internal_node_id":"0.0-4.0-1.0-3.4-0.4","subject_id":"88"},{"stimulus":"<div class =\"card_deck\">\n              <div class =\"card deg-0\" style=\"background: black\"></div>\n              <div class =\"card deg-72\" style=\"background: grey\"></div>\n              <div class =\"card deg-144\" style=\"background: grey\"></div>\n              <div class =\"card deg-216\" style=\"background: grey\"></div>\n              <div class =\"card deg-288\" style=\"background: grey\"></div>\n            </div>\n            <div class=\"fixation\">+</div>\n            <div class=\"eegtrigger\"></div>","rt":null,"response":null,"phase":"test","task":"reveal","eeg_event_id":31,"card":1,"color":"black","sequence_id":28,"outcome":1,"participant_choice":"red","card_value":0,"wins_so_far":0,"trial_type":"html-keyboard-response","trial_index":67,"time_elapsed":3478,"internal_node_id":"0.0-4.0-1.0-3.4-1.4","subject_id":"88"},{"stimulus":"<div class =\"card_deck\">\n              <div class =\"card deg-0\" style=\"background: black\"></div>\n              <div class =\"card deg-72\" style=\"background: red\"></div>\n              <div class =\"card deg-144\" style=\"background: grey\"></div>\n              <div class =\"card deg-216\" style=\"background: grey\"></div>\n              <div class =\"card deg-288\" style=\"background: grey\"></div>\n            </div>\n            <div class=\"fixation\">+</div>\n            <div class=\"eegtrigger\"></div>","rt":null,"response":null,"phase":"test","task":"reveal","eeg_event_id":32,"card":2,"color":"red","sequence_id":28,"outcome":1,"participant_choice":"red","card_value":1,"wins_so_far":0,"trial_type":"html-keyboard-response","trial_index":68,"time_elapsed":3478,"internal_node_id":"0.0-4.0-1.0-3.4-2.4","subject_id":"88"},{"stimulus":"<div class =\"card_deck\">\n              <div class =\"card deg-0\" style=\"background: black\"></div>\n              <div class =\"card deg-72\" style=\"background: red\"></div>\n              <div class =\"card deg-144\" style=\"background: black\"></div>\n              <div class =\"card deg-216\" style=\"background: grey\"></div>\n              <div class =\"card deg-288\" style=\"background: grey\"></div>\n            </div>\n            <div class=\"fixation\">+</div>\n            <div class=\"eegtrigger\"></div>","rt":null,"response":null,"phase":"test","task":"reveal","eeg_event_id":33,"card":3,"color":"black","sequence_id":28,"outcome":1,"participant_choice":"red","card_value":0,"wins_so_far":1,"trial_type":"html-keyboard-response","trial_index":69,"time_elapsed":3479,"internal_node_id":"0.0-4.0-1.0-3.4-3.4","subject_id":"88"},{"stimulus":"<div class =\"card_deck\">\n              <div class =\"card deg-0\" style=\"background: black\"></div>\n              <div class =\"card deg-72\" style=\"background: red\"></div>\n              <div class =\"card deg-144\" style=\"background: black\"></div>\n              <div class =\"card deg-216\" style=\"background: red\"></div>\n              <div class =\"card deg-288\" style=\"background: grey\"></div>\n            </div>\n            <div class=\"fixation\">+</div>\n            <div class=\"eegtrigger\"></div>","rt":null,"response":null,"phase":"test","task":"reveal","eeg_event_id":34,"card":4,"color":"red","sequence_id":28,"outcome":1,"participant_choice":"red","card_value":1,"wins_so_far":1,"trial_type":"html-keyboard-response","trial_index":70,"time_elapsed":3479,"internal_node_id":"0.0-4.0-1.0-3.4-4.4","subject_id":"88"},{"stimulus":"<div class =\"card_deck\">\n              <div class =\"card deg-0\" style=\"background: black\"></div>\n              <div class =\"card deg-72\" style=\"background: red\"></div>\n              <div class =\"card deg-144\" style=\"background: black\"></div>\n              <div class =\"card deg-216\" style=\"background: red\"></div>\n              <div class =\"card deg-288\" style=\"background: black\"></div>\n            </div>\n            <div class=\"fixation\">+</div>\n            <div class=\"eegtrigger\"></div>","rt":null,"response":null,"phase":"test","task":"reveal","eeg_event_id":35,"card":5,"color":"black","sequence_id":28,"outcome":1,"participant_choice":"red","card_value":0,"wins_so_far":2,"trial_type":"html-keyboard-response","trial_index":71,"time_elapsed":3479,"internal_node_id":"0.0-4.0-1.0-3.4-5.4","subject_id":"88"},{"stimulus":"\n          <div class=\"info_container\" style=\"position: relative; margin: auto; display: flex; justify-content: space-between;\">\n            <div class=\"trial\" style=\"text-align: center;\">\n              <p>You didn't win this round.</p></div>\n            </div>\n          </div>","rt":null,"response":null,"phase":"test","trial_type":"html-keyboard-response","trial_index":72,"time_elapsed":3479,"internal_node_id":"0.0-4.0-1.0-4.4","subject_id":"88"},{"stimulus":"\n        <p>Trial: <strong>6</strong></p>\n        <br>\n        <p>Place your bet on the next slide.</p>\n        ","rt":null,"response":null,"phase":"test","trial_type":"html-keyboard-response","trial_index":73,"time_elapsed":3479,"internal_node_id":"0.0-4.0-1.0-0.5","subject_id":"88"},{"stimulus":"\n        <div class=\"choice_container\" style=\"width: 600px; display: flex; justify-content: space-between; align-items: center;\">\n          <div class=\"RED\" style=\"text-align: right;\">RED</div>\n          <div class=\"BLACK\" style=\"text-align: left;\">BLACK</div>\n        </div>\n        <div class=\"fixation\">+</div>\n      ","rt":1005,"response":"ArrowRight","phase":"test","task":"choice_response","red":"ArrowLeft","trial_type":"html-keyboard-response","trial_index":74,"time_elapsed":3479,"internal_node_id":"0.0-4.0-1.0-1.5","subject_id":"88","color":"black"},{"stimulus":"\n          <div class=\"show_choice_container\">\n            <div class=\"card deg-0\" style=\"background: black;\"></div>\n            <p style=\"margin:0;\">Chosen option: <span class=\"BLACK\">BLACK</span></p>\n          </div>\n          <div class=\"fixation\">+</div>\n          ","rt":null,"response":null,"phase":"test","trial_type":"html-keyboard-response","trial_index":75,"time_elapsed":3480,"internal_node_id":"0.0-4.0-1.0-2.5","subject_id":"88"},{"stimulus":"<div class =\"card_deck\">\n              <div class =\"card deg-0\" style=\"background: grey\"></div>\n              <div class =\"card deg-72\" style=\"background: grey\"></div>\n              <div class =\"card deg-144\" style=\"background: grey\"></div>\n              <div class =\"card deg-216\" style=\"background: grey\"></div>\n              <div class =\"card deg-288\" style=\"background: grey\"></div>\n            </div>\n            <div class=\"fixation\">+</div>","rt":null,"response":null,"phase":"test","trial_type":"html-keyboard-response","trial_index":76,"time_elapsed":3481,"internal_node_id":"0.0-4.0-1.0-3.5-0.5","subject_id":"88"},{"stimulus":"<div class =\"card_deck\">\n              <div class =\"card deg-0\" style=\"background: red\"></div>\n              <div class =\"card deg-72\" style=\"background: grey\"></div>\n              <div class =\"card deg-144\" style=\"background: grey\"></div>\n              <div class =\"card deg-216\" style=\"background: grey\"></div>\n              <div class =\"card deg-288\" style=\"background: grey\"></div>\n            </div>\n            <div class=\"fixation\">+</div>\n            <div class=\"eegtrigger\"></div>","rt":null,"response":null,"phase":"test","task":"reveal","eeg_event_id":36,"card":1,"color":"red","sequence_id":21,"outcome":1,"participant_choice":"black","card_value":0,"wins_so_far":0,"trial_type":"html-keyboard-response","trial_index":77,"time_elapsed":3481,"internal_node_id":"0.0-4.0-1.0-3.5-1.5","subject_id":"88"},{"stimulus":"<div class =\"card_deck\">\n              <div class =\"card deg-0\" style=\"background: red\"></div>\n              <div class =\"card deg-72\" style=\"background: red\"></div>\n              <div class =\"card deg-144\" style=\"background: grey\"></div>\n              <div class =\"card deg-216\" style=\"background: grey\"></div>\n              <div class =\"card deg-288\" style=\"background: grey\"></div>\n            </div>\n            <div class=\"fixation\">+</div>\n            <div class=\"eegtrigger\"></div>","rt":null,"response":null,"phase":"test","task":"reveal","eeg_event_id":37,"card":2,"color":"red","sequence_id":21,"outcome":1,"participant_choice":"black","card_value":0,"wins_so_far":0,"trial_type":"html-keyboard-response","trial_index":78,"time_elapsed":3481,"internal_node_id":"0.0-4.0-1.0-3.5-2.5","subject_id":"88"},{"stimulus":"<div class =\"card_deck\">\n              <div class =\"card deg-0\" style=\"background: red\"></div>\n              <div class =\"card deg-72\" style=\"background: red\"></div>\n              <div class =\"card deg-144\" style=\"background: red\"></div>\n              <div class =\"card deg-216\" style=\"background: grey\"></div>\n              <div class =\"card deg-288\" style=\"background: grey\"></div>\n            </div>\n            <div class=\"fixation\">+</div>\n            <div class=\"eegtrigger\"></div>","rt":null,"response":null,"phase":"test","task":"reveal","eeg_event_id":38,"card":3,"color":"red","sequence_id":21,"outcome":1,"participant_choice":"black","card_value":0,"wins_so_far":0,"trial_type":"html-keyboard-response","trial_index":79,"time_elapsed":3482,"internal_node_id":"0.0-4.0-1.0-3.5-3.5","subject_id":"88"},{"stimulus":"<div class =\"card_deck\">\n              <div class =\"card deg-0\" style=\"background: red\"></div>\n              <div class =\"card deg-72\" style=\"background: red\"></div>\n              <div class =\"card deg-144\" style=\"background: red\"></div>\n              <div class =\"card deg-216\" style=\"background: black\"></div>\n              <div class =\"card deg-288\" style=\"background: grey\"></div>\n            </div>\n            <div class=\"fixation\">+</div>\n            <div class=\"eegtrigger\"></div>","rt":null,"response":null,"phase":"test","task":"reveal","eeg_event_id":39,"card":4,"color":"black","sequence_id":21,"outcome":1,"participant_choice":"black","card_value":1,"wins_so_far":0,"trial_type":"html-keyboard-response","trial_index":80,"time_elapsed":3482,"internal_node_id":"0.0-4.0-1.0-3.5-4.5","subject_id":"88"},{"stimulus":"<div class =\"card_deck\">\n              <div class =\"card deg-0\" style=\"background: red\"></div>\n              <div class =\"card deg-72\" style=\"background: red\"></div>\n              <div class =\"card deg-144\" style=\"background: red\"></div>\n              <div class =\"card deg-216\" style=\"background: black\"></div>\n              <div class =\"card deg-288\" style=\"background: red\"></div>\n            </div>\n            <div class=\"fixation\">+</div>\n            <div class=\"eegtrigger\"></div>","rt":null,"response":null,"phase":"test","task":"reveal","eeg_event_id":40,"card":5,"color":"red","sequence_id":21,"outcome":1,"participant_choice":"black","card_value":0,"wins_so_far":1,"trial_type":"html-keyboard-response","trial_index":81,"time_elapsed":3482,"internal_node_id":"0.0-4.0-1.0-3.5-5.5","subject_id":"88"},{"stimulus":"\n          <div class=\"info_container\" style=\"position: relative; margin: auto; display: flex; justify-content: space-between;\">\n            <div class=\"trial\" style=\"text-align: center;\">\n              <p>You didn't win this round.</p></div>\n            </div>\n          </div>","rt":null,"response":null,"phase":"test","trial_type":"html-keyboard-response","trial_index":82,"time_elapsed":3482,"internal_node_id":"0.0-4.0-1.0-4.5","subject_id":"88"},{"stimulus":"\n        <p>Trial: <strong>7</strong></p>\n        <br>\n        <p>Place your bet on the next slide.</p>\n        ","rt":null,"response":null,"phase":"test","trial_type":"html-keyboard-response","trial_index":83,"time_elapsed":3482,"internal_node_id":"0.0-4.0-1.0-0.6","subject_id":"88"},{"stimulus":"\n        <div class=\"choice_container\" style=\"width: 600px; display: flex; justify-content: space-between; align-items: center;\">\n          <div class=\"RED\" style=\"text-align: right;\">RED</div>\n          <div class=\"BLACK\" style=\"text-align: left;\">BLACK</div>\n        </div>\n        <div class=\"fixation\">+</div>\n      ","rt":478,"response":"ArrowRight","phase":"test","task":"choice_response","red":"ArrowLeft","trial_type":"html-keyboard-response","trial_index":84,"time_elapsed":3482,"internal_node_id":"0.0-4.0-1.0-1.6","subject_id":"88","color":"black"},{"stimulus":"\n          <div class=\"show_choice_container\">\n            <div class=\"card deg-0\" style=\"background: black;\"></div>\n            <p style=\"margin:0;\">Chosen option: <span class=\"BLACK\">BLACK</span></p>\n          </div>\n          <div class=\"fixation\">+</div>\n          ","rt":null,"response":null,"phase":"test","trial_type":"html-keyboard-response","trial_index":85,"time_elapsed":3483,"internal_node_id":"0.0-4.0-1.0-2.6","subject_id":"88"},{"stimulus":"<div class =\"card_deck\">\n              <div class =\"card deg-0\" style=\"background: grey\"></div>\n              <div class =\"card deg-72\" style=\"background: grey\"></div>\n              <div class =\"card deg-144\" style=\"background: grey\"></div>\n              <div class =\"card deg-216\" style=\"background: grey\"></div>\n              <div class =\"card deg-288\" style=\"background: grey\"></div>\n            </div>\n            <div class=\"fixation\">+</div>","rt":null,"response":null,"phase":"test","trial_type":"html-keyboard-response","trial_index":86,"time_elapsed":3483,"internal_node_id":"0.0-4.0-1.0-3.6-0.6","subject_id":"88"},{"stimulus":"<div class =\"card_deck\">\n              <div class =\"card deg-0\" style=\"background: black\"></div>\n              <div class =\"card deg-72\" style=\"background: grey\"></div>\n              <div class =\"card deg-144\" style=\"background: grey\"></div>\n              <div class =\"card deg-216\" style=\"background: grey\"></div>\n              <div class =\"card deg-288\" style=\"background: grey\"></div>\n            </div>\n            <div class=\"fixation\">+</div>\n            <div class=\"eegtrigger\"></div>","rt":null,"response":null,"phase":"test","task":"reveal","eeg_event_id":41,"card":1,"color":"black","sequence_id":5,"outcome":0,"participant_choice":"black","card_value":1,"wins_so_far":0,"trial_type":"html-keyboard-response","trial_index":87,"time_elapsed":3484,"internal_node_id":"0.0-4.0-1.0-3.6-1.6","subject_id":"88"},{"stimulus":"<div class =\"card_deck\">\n              <div class =\"card deg-0\" style=\"background: black\"></div>\n              <div class =\"card deg-72\" style=\"background: black\"></div>\n              <div class =\"card deg-144\" style=\"background: grey\"></div>\n              <div class =\"card deg-216\" style=\"background: grey\"></div>\n              <div class =\"card deg-288\" style=\"background: grey\"></div>\n            </div>\n            <div class=\"fixation\">+</div>\n            <div class=\"eegtrigger\"></div>","rt":null,"response":null,"phase":"test","task":"reveal","eeg_event_id":42,"card":2,"color":"black","sequence_id":5,"outcome":0,"participant_choice":"black","card_value":1,"wins_so_far":1,"trial_type":"html-keyboard-response","trial_index":88,"time_elapsed":3484,"internal_node_id":"0.0-4.0-1.0-3.6-2.6","subject_id":"88"},{"stimulus":"<div class =\"card_deck\">\n              <div class =\"card deg-0\" style=\"background: black\"></div>\n              <div class =\"card deg-72\" style=\"background: black\"></div>\n              <div class =\"card deg-144\" style=\"background: black\"></div>\n              <div class =\"card deg-216\" style=\"background: grey\"></div>\n              <div class =\"card deg-288\" style=\"background: grey\"></div>\n            </div>\n            <div class=\"fixation\">+</div>\n            <div class=\"eegtrigger\"></div>","rt":null,"response":null,"phase":"test","task":"reveal","eeg_event_id":43,"card":3,"color":"black","sequence_id":5,"outcome":0,"participant_choice":"black","card_value":1,"wins_so_far":2,"trial_type":"html-keyboard-response","trial_index":89,"time_elapsed":3484,"internal_node_id":"0.0-4.0-1.0-3.6-3.6","subject_id":"88"},{"stimulus":"<div class =\"card_deck\">\n              <div class =\"card deg-0\" style=\"background: black\"></div>\n              <div class =\"card deg-72\" style=\"background: black\"></div>\n              <div class =\"card deg-144\" style=\"background: black\"></div>\n              <div class =\"card deg-216\" style=\"background: red\"></div>\n              <div class =\"card deg-288\" style=\"background: grey\"></div>\n            </div>\n            <div class=\"fixation\">+</div>\n            <div class=\"eegtrigger\"></div>","rt":null,"response":null,"phase":"test","task":"reveal","eeg_event_id":44,"card":4,"color":"red","sequence_id":5,"outcome":0,"participant_choice":"black","card_value":0,"wins_so_far":3,"trial_type":"html-keyboard-response","trial_index":90,"time_elapsed":3484,"internal_node_id":"0.0-4.0-1.0-3.6-4.6","subject_id":"88"},{"stimulus":"<div class =\"card_deck\">\n              <div class =\"card deg-0\" style=\"background: black\"></div>\n              <div class =\"card deg-72\" style=\"background: black\"></div>\n              <div class =\"card deg-144\" style=\"background: black\"></div>\n              <div class =\"card deg-216\" style=\"background: red\"></div>\n              <div class =\"card deg-288\" style=\"background: black\"></div>\n            </div>\n            <div class=\"fixation\">+</div>\n            <div class=\"eegtrigger\"></div>","rt":null,"response":null,"phase":"test","task":"reveal","eeg_event_id":45,"card":5,"color":"black","sequence_id":5,"outcome":0,"participant_choice":"black","card_value":1,"wins_so_far":3,"trial_type":"html-keyboard-response","trial_index":91,"time_elapsed":3485,"internal_node_id":"0.0-4.0-1.0-3.6-5.6","subject_id":"88"},{"stimulus":"\n          <div class=\"info_container\" style=\"position: relative; margin: auto; display: flex; justify-content: space-between;\">\n            <div class=\"trial\" style=\"text-align: center;\">\n              <p>You won 20 cents!</p>\n            </div>\n          </div>","rt":null,"response":null,"phase":"test","trial_type":"html-keyboard-response","trial_index":92,"time_elapsed":3485,"internal_node_id":"0.0-4.0-1.0-4.6","subject_id":"88"},{"stimulus":"\n        <p>Trial: <strong>8</strong></p>\n        <br>\n        <p>Place your bet on the next slide.</p>\n        ","rt":null,"response":null,"phase":"test","trial_type":"html-keyboard-response","trial_index":93,"time_elapsed":3485,"internal_node_id":"0.0-4.0-1.0-0.7","subject_id":"88"},{"stimulus":"\n        <div class=\"choice_container\" style=\"width: 600px; display: flex; justify-content: space-between; align-items: center;\">\n          <div class=\"RED\" style=\"text-align: right;\">RED</div>\n          <div class=\"BLACK\" style=\"text-align: left;\">BLACK</div>\n        </div>\n        <div class=\"fixation\">+</div>\n      ","rt":1111,"response":"ArrowRight","phase":"test","task":"choice_response","red":"ArrowLeft","trial_type":"html-keyboard-response","trial_index":94,"time_elapsed":3485,"internal_node_id":"0.0-4.0-1.0-1.7","subject_id":"88","color":"black"},{"stimulus":"\n          <div class=\"show_choice_container\">\n            <div class=\"card deg-0\" style=\"background: black;\"></div>\n            <p style=\"margin:0;\">Chosen option: <span class=\"BLACK\">BLACK</span></p>\n          </div>\n          <div class=\"fixation\">+</div>\n          ","rt":null,"response":null,"phase":"test","trial_type":"html-keyboard-response","trial_index":95,"time_elapsed":3485,"internal_node_id":"0.0-4.0-1.0-2.7","subject_id":"88"},{"stimulus":"<div class =\"card_deck\">\n              <div class =\"card deg-0\" style=\"background: grey\"></div>\n              <div class =\"card deg-72\" style=\"background: grey\"></div>\n              <div class =\"card deg-144\" style=\"background: grey\"></div>\n              <div class =\"card deg-216\" style=\"background: grey\"></div>\n              <div class =\"card deg-288\" style=\"background: grey\"></div>\n            </div>\n            <div class=\"fixation\">+</div>","rt":null,"response":null,"phase":"test","trial_type":"html-keyboard-response","trial_index":96,"time_elapsed":3486,"internal_node_id":"0.0-4.0-1.0-3.7-0.7","subject_id":"88"},{"stimulus":"<div class =\"card_deck\">\n              <div class =\"card deg-0\" style=\"background: red\"></div>\n              <div class =\"card deg-72\" style=\"background: grey\"></div>\n              <div class =\"card deg-144\" style=\"background: grey\"></div>\n              <div class =\"card deg-216\" style=\"background: grey\"></div>\n              <div class =\"card deg-288\" style=\"background: grey\"></div>\n            </div>\n            <div class=\"fixation\">+</div>\n            <div class=\"eegtrigger\"></div>","rt":null,"response":null,"phase":"test","task":"reveal","eeg_event_id":46,"card":1,"color":"red","sequence_id":19,"outcome":1,"participant_choice":"black","card_value":0,"wins_so_far":0,"trial_type":"html-keyboard-response","trial_index":97,"time_elapsed":3486,"internal_node_id":"0.0-4.0-1.0-3.7-1.7","subject_id":"88"},{"stimulus":"<div class =\"card_deck\">\n              <div class =\"card deg-0\" style=\"background: red\"></div>\n              <div class =\"card deg-72\" style=\"background: black\"></div>\n              <div class =\"card deg-144\" style=\"background: grey\"></div>\n              <div class =\"card deg-216\" style=\"background: grey\"></div>\n              <div class =\"card deg-288\" style=\"background: grey\"></div>\n            </div>\n            <div class=\"fixation\">+</div>\n            <div class=\"eegtrigger\"></div>","rt":null,"response":null,"phase":"test","task":"reveal","eeg_event_id":47,"card":2,"color":"black","sequence_id":19,"outcome":1,"participant_choice":"black","card_value":1,"wins_so_far":0,"trial_type":"html-keyboard-response","trial_index":98,"time_elapsed":3487,"internal_node_id":"0.0-4.0-1.0-3.7-2.7","subject_id":"88"},{"stimulus":"<div class =\"card_deck\">\n              <div class =\"card deg-0\" style=\"background: red\"></div>\n              <div class =\"card deg-72\" style=\"background: black\"></div>\n              <div class =\"card deg-144\" style=\"background: red\"></div>\n              <div class =\"card deg-216\" style=\"background: grey\"></div>\n              <div class =\"card deg-288\" style=\"background: grey\"></div>\n            </div>\n            <div class=\"fixation\">+</div>\n            <div class=\"eegtrigger\"></div>","rt":null,"response":null,"phase":"test","task":"reveal","eeg_event_id":48,"card":3,"color":"red","sequence_id":19,"outcome":1,"participant_choice":"black","card_value":0,"wins_so_far":1,"trial_type":"html-keyboard-response","trial_index":99,"time_elapsed":3487,"internal_node_id":"0.0-4.0-1.0-3.7-3.7","subject_id":"88"},{"stimulus":"<div class =\"card_deck\">\n              <div class =\"card deg-0\" style=\"background: red\"></div>\n              <div class =\"card deg-72\" style=\"background: black\"></div>\n              <div class =\"card deg-144\" style=\"background: red\"></div>\n              <div class =\"card deg-216\" style=\"background: red\"></div>\n              <div class =\"card deg-288\" style=\"background: grey\"></div>\n            </div>\n            <div class=\"fixation\">+</div>\n            <div class=\"eegtrigger\"></div>","rt":null,"response":null,"phase":"test","task":"reveal","eeg_event_id":49,"card":4,"color":"red","sequence_id":19,"outcome":1,"participant_choice":"black","card_value":0,"wins_so_far":1,"trial_type":"html-keyboard-response","trial_index":100,"time_elapsed":3487,"internal_node_id":"0.0-4.0-1.0-3.7-4.7","subject_id":"88"},{"stimulus":"<div class =\"card_deck\">\n              <div class =\"card deg-0\" style=\"background: red\"></div>\n              <div class =\"card deg-72\" style=\"background: black\"></div>\n              <div class =\"card deg-144\" style=\"background: red\"></div>\n              <div class =\"card deg-216\" style=\"background: red\"></div>\n              <div class =\"card deg-288\" style=\"background: red\"></div>\n            </div>\n            <div class=\"fixation\">+</div>\n            <div class=\"eegtrigger\"></div>","rt":null,"response":null,"phase":"test","task":"reveal","eeg_event_id":50,"card":5,"color":"red","sequence_id":19,"outcome":1,"participant_choice":"black","card_value":0,"wins_so_far":1,"trial_type":"html-keyboard-response","trial_index":101,"time_elapsed":3487,"internal_node_id":"0.0-4.0-1.0-3.7-5.7","subject_id":"88"},{"stimulus":"\n          <div class=\"info_container\" style=\"position: relative; margin: auto; display: flex; justify-content: space-between;\">\n            <div class=\"trial\" style=\"text-align: center;\">\n              <p>You didn't win this round.</p></div>\n            </div>\n          </div>","rt":null,"response":null,"phase":"test","trial_type":"html-keyboard-response","trial_index":102,"time_elapsed":3487,"internal_node_id":"0.0-4.0-1.0-4.7","subject_id":"88"},{"stimulus":"\n        <p>Trial: <strong>9</strong></p>\n        <br>\n        <p>Place your bet on the next slide.</p>\n        ","rt":null,"response":null,"phase":"test","trial_type":"html-keyboard-response","trial_index":103,"time_elapsed":3487,"internal_node_id":"0.0-4.0-1.0-0.8","subject_id":"88"},{"stimulus":"\n        <div class=\"choice_container\" style=\"width: 600px; display: flex; justify-content: space-between; align-items: center;\">\n          <div class=\"RED\" style=\"text-align: right;\">RED</div>\n          <div class=\"BLACK\" style=\"text-align: left;\">BLACK</div>\n        </div>\n        <div class=\"fixation\">+</div>\n      ","rt":661,"response":"ArrowRight","phase":"test","task":"choice_response","red":"ArrowLeft","trial_type":"html-keyboard-response","trial_index":104,"time_elapsed":3487,"internal_node_id":"0.0-4.0-1.0-1.8","subject_id":"88","color":"black"},{"stimulus":"\n          <div class=\"show_choice_container\">\n            <div class=\"card deg-0\" style=\"background: black;\"></div>\n            <p style=\"margin:0;\">Chosen option: <span class=\"BLACK\">BLACK</span></p>\n          </div>\n          <div class=\"fixation\">+</div>\n          ","rt":null,"response":null,"phase":"test","trial_type":"html-keyboard-response","trial_index":105,"time_elapsed":3488,"internal_node_id":"0.0-4.0-1.0-2.8","subject_id":"88"},{"stimulus":"<div class =\"card_deck\">\n              <div class =\"card deg-0\" style=\"background: grey\"></div>\n              <div class =\"card deg-72\" style=\"background: grey\"></div>\n              <div class =\"card deg-144\" style=\"background: grey\"></div>\n              <div class =\"card deg-216\" style=\"background: grey\"></div>\n              <div class =\"card deg-288\" style=\"background: grey\"></div>\n            </div>\n            <div class=\"fixation\">+</div>","rt":null,"response":null,"phase":"test","trial_type":"html-keyboard-response","trial_index":106,"time_elapsed":3489,"internal_node_id":"0.0-4.0-1.0-3.8-0.8","subject_id":"88"},{"stimulus":"<div class =\"card_deck\">\n              <div class =\"card deg-0\" style=\"background: red\"></div>\n              <div class =\"card deg-72\" style=\"background: grey\"></div>\n              <div class =\"card deg-144\" style=\"background: grey\"></div>\n              <div class =\"card deg-216\" style=\"background: grey\"></div>\n              <div class =\"card deg-288\" style=\"background: grey\"></div>\n            </div>\n            <div class=\"fixation\">+</div>\n            <div class=\"eegtrigger\"></div>","rt":null,"response":null,"phase":"test","task":"reveal","eeg_event_id":51,"card":1,"color":"red","sequence_id":30,"outcome":1,"participant_choice":"black","card_value":0,"wins_so_far":0,"trial_type":"html-keyboard-response","trial_index":107,"time_elapsed":3489,"internal_node_id":"0.0-4.0-1.0-3.8-1.8","subject_id":"88"},{"stimulus":"<div class =\"card_deck\">\n              <div class =\"card deg-0\" style=\"background: red\"></div>\n              <div class =\"card deg-72\" style=\"background: red\"></div>\n              <div class =\"card deg-144\" style=\"background: grey\"></div>\n              <div class =\"card deg-216\" style=\"background: grey\"></div>\n              <div class =\"card deg-288\" style=\"background: grey\"></div>\n            </div>\n            <div class=\"fixation\">+</div>\n            <div class=\"eegtrigger\"></div>","rt":null,"response":null,"phase":"test","task":"reveal","eeg_event_id":52,"card":2,"color":"red","sequence_id":30,"outcome":1,"participant_choice":"black","card_value":0,"wins_so_far":0,"trial_type":"html-keyboard-response","trial_index":108,"time_elapsed":3490,"internal_node_id":"0.0-4.0-1.0-3.8-2.8","subject_id":"88"},{"stimulus":"<div class =\"card_deck\">\n              <div class =\"card deg-0\" style=\"background: red\"></div>\n              <div class =\"card deg-72\" style=\"background: red\"></div>\n              <div class =\"card deg-144\" style=\"background: black\"></div>\n              <div class =\"card deg-216\" style=\"background: grey\"></div>\n              <div class =\"card deg-288\" style=\"background: grey\"></div>\n            </div>\n            <div class=\"fixation\">+</div>\n            <div class=\"eegtrigger\"></div>","rt":null,"response":null,"phase":"test","task":"reveal","eeg_event_id":53,"card":3,"color":"black","sequence_id":30,"outcome":1,"participant_choice":"black","card_value":1,"wins_so_far":0,"trial_type":"html-keyboard-response","trial_index":109,"time_elapsed":3490,"internal_node_id":"0.0-4.0-1.0-3.8-3.8","subject_id":"88"},{"stimulus":"<div class =\"card_deck\">\n              <div class =\"card deg-0\" style=\"background: red\"></div>\n              <div class =\"card deg-72\" style=\"background: red\"></div>\n              <div class =\"card deg-144\" style=\"background: black\"></div>\n              <div class =\"card deg-216\" style=\"background: black\"></div>\n              <div class =\"card deg-288\" style=\"background: grey\"></div>\n            </div>\n            <div class=\"fixation\">+</div>\n            <div class=\"eegtrigger\"></div>","rt":null,"response":null,"phase":"test","task":"reveal","eeg_event_id":54,"card":4,"color":"black","sequence_id":30,"outcome":1,"participant_choice":"black","card_value":1,"wins_so_far":1,"trial_type":"html-keyboard-response","trial_index":110,"time_elapsed":3490,"internal_node_id":"0.0-4.0-1.0-3.8-4.8","subject_id":"88"},{"stimulus":"<div class =\"card_deck\">\n              <div class =\"card deg-0\" style=\"background: red\"></div>\n              <div class =\"card deg-72\" style=\"background: red\"></div>\n              <div class =\"card deg-144\" style=\"background: black\"></div>\n              <div class =\"card deg-216\" style=\"background: black\"></div>\n              <div class =\"card deg-288\" style=\"background: red\"></div>\n            </div>\n            <div class=\"fixation\">+</div>\n            <div class=\"eegtrigger\"></div>","rt":null,"response":null,"phase":"test","task":"reveal","eeg_event_id":55,"card":5,"color":"red","sequence_id":30,"outcome":1,"participant_choice":"black","card_value":0,"wins_so_far":2,"trial_type":"html-keyboard-response","trial_index":111,"time_elapsed":3490,"internal_node_id":"0.0-4.0-1.0-3.8-5.8","subject_id":"88"},{"stimulus":"\n          <div class=\"info_container\" style=\"position: relative; margin: auto; display: flex; justify-content: space-between;\">\n            <div class=\"trial\" style=\"text-align: center;\">\n              <p>You didn't win this round.</p></div>\n            </div>\n          </div>","rt":null,"response":null,"phase":"test","trial_type":"html-keyboard-response","trial_index":112,"time_elapsed":3490,"internal_node_id":"0.0-4.0-1.0-4.8","subject_id":"88"},{"stimulus":"\n        <p>Trial: <strong>10</strong></p>\n        <br>\n        <p>Place your bet on the next slide.</p>\n        ","rt":null,"response":null,"phase":"test","trial_type":"html-keyboard-response","trial_index":113,"time_elapsed":3490,"internal_node_id":"0.0-4.0-1.0-0.9","subject_id":"88"},{"stimulus":"\n        <div class=\"choice_container\" style=\"width: 600px; display: flex; justify-content: space-between; align-items: center;\">\n          <div class=\"RED\" style=\"text-align: right;\">RED</div>\n          <div class=\"BLACK\" style=\"text-align: left;\">BLACK</div>\n        </div>\n        <div class=\"fixation\">+</div>\n      ","rt":535,"response":"ArrowRight","phase":"test","task":"choice_response","red":"ArrowLeft","trial_type":"html-keyboard-response","trial_index":114,"time_elapsed":3491,"internal_node_id":"0.0-4.0-1.0-1.9","subject_id":"88","color":"black"},{"stimulus":"\n          <div class=\"show_choice_container\">\n            <div class=\"card deg-0\" style=\"background: black;\"></div>\n            <p style=\"margin:0;\">Chosen option: <span class=\"BLACK\">BLACK</span></p>\n          </div>\n          <div class=\"fixation\">+</div>\n          ","rt":null,"response":null,"phase":"test","trial_type":"html-keyboard-response","trial_index":115,"time_elapsed":3491,"internal_node_id":"0.0-4.0-1.0-2.9","subject_id":"88"},{"stimulus":"<div class =\"card_deck\">\n              <div class =\"card deg-0\" style=\"background: grey\"></div>\n              <div class =\"card deg-72\" style=\"background: grey\"></div>\n              <div class =\"card deg-144\" style=\"background: grey\"></div>\n              <div class =\"card deg-216\" style=\"background: grey\"></div>\n              <div class =\"card deg-288\" style=\"background: grey\"></div>\n            </div>\n            <div class=\"fixation\">+</div>","rt":null,"response":null,"phase":"test","trial_type":"html-keyboard-response","trial_index":116,"time_elapsed":3492,"internal_node_id":"0.0-4.0-1.0-3.9-0.9","subject_id":"88"},{"stimulus":"<div class =\"card_deck\">\n              <div class =\"card deg-0\" style=\"background: red\"></div>\n              <div class =\"card deg-72\" style=\"background: grey\"></div>\n              <div class =\"card deg-144\" style=\"background: grey\"></div>\n              <div class =\"card deg-216\" style=\"background: grey\"></div>\n              <div class =\"card deg-288\" style=\"background: grey\"></div>\n            </div>\n            <div class=\"fixation\">+</div>\n            <div class=\"eegtrigger\"></div>","rt":null,"response":null,"phase":"test","task":"reveal","eeg_event_id":56,"card":1,"color":"red","sequence_id":31,"outcome":1,"participant_choice":"black","card_value":0,"wins_so_far":0,"trial_type":"html-keyboard-response","trial_index":117,"time_elapsed":3492,"internal_node_id":"0.0-4.0-1.0-3.9-1.9","subject_id":"88"},{"stimulus":"<div class =\"card_deck\">\n              <div class =\"card deg-0\" style=\"background: red\"></div>\n              <div class =\"card deg-72\" style=\"background: red\"></div>\n              <div class =\"card deg-144\" style=\"background: grey\"></div>\n              <div class =\"card deg-216\" style=\"background: grey\"></div>\n              <div class =\"card deg-288\" style=\"background: grey\"></div>\n            </div>\n            <div class=\"fixation\">+</div>\n            <div class=\"eegtrigger\"></div>","rt":null,"response":null,"phase":"test","task":"reveal","eeg_event_id":57,"card":2,"color":"red","sequence_id":31,"outcome":1,"participant_choice":"black","card_value":0,"wins_so_far":0,"trial_type":"html-keyboard-response","trial_index":118,"time_elapsed":3492,"internal_node_id":"0.0-4.0-1.0-3.9-2.9","subject_id":"88"},{"stimulus":"<div class =\"card_deck\">\n              <div class =\"card deg-0\" style=\"background: red\"></div>\n              <div class =\"card deg-72\" style=\"background: red\"></div>\n              <div class =\"card deg-144\" style=\"background: black\"></div>\n              <div class =\"card deg-216\" style=\"background: grey\"></div>\n              <div class =\"card deg-288\" style=\"background: grey\"></div>\n            </div>\n            <div class=\"fixation\">+</div>\n            <div class=\"eegtrigger\"></div>","rt":null,"response":null,"phase":"test","task":"reveal","eeg_event_id":58,"card":3,"color":"black","sequence_id":31,"outcome":1,"participant_choice":"black","card_value":1,"wins_so_far":0,"trial_type":"html-keyboard-response","trial_index":119,"time_elapsed":3493,"internal_node_id":"0.0-4.0-1.0-3.9-3.9","subject_id":"88"},{"stimulus":"<div class =\"card_deck\">\n              <div class =\"card deg-0\" style=\"background: red\"></div>\n              <div class =\"card deg-72\" style=\"background: red\"></div>\n              <div class =\"card deg-144\" style=\"background: black\"></div>\n              <div class =\"card deg-216\" style=\"background: red\"></div>\n              <div class =\"card deg-288\" style=\"background: grey\"></div>\n            </div>\n            <div class=\"fixation\">+</div>\n            <div class=\"eegtrigger\"></div>","rt":null,"response":null,"phase":"test","task":"reveal","eeg_event_id":59,"card":4,"color":"red","sequence_id":31,"outcome":1,"participant_choice":"black","card_value":0,"wins_so_far":1,"trial_type":"html-keyboard-response","trial_index":120,"time_elapsed":3493,"internal_node_id":"0.0-4.0-1.0-3.9-4.9","subject_id":"88"},{"stimulus":"<div class =\"card_deck\">\n              <div class =\"card deg-0\" style=\"background: red\"></div>\n              <div class =\"card deg-72\" style=\"background: red\"></div>\n              <div class =\"card deg-144\" style=\"background: black\"></div>\n              <div class =\"card deg-216\" style=\"background: red\"></div>\n              <div class =\"card deg-288\" style=\"background: black\"></div>\n            </div>\n            <div class=\"fixation\">+</div>\n            <div class=\"eegtrigger\"></div>","rt":null,"response":null,"phase":"test","task":"reveal","eeg_event_id":60,"card":5,"color":"black","sequence_id":31,"outcome":1,"participant_choice":"black","card_value":1,"wins_so_far":1,"trial_type":"html-keyboard-response","trial_index":121,"time_elapsed":3493,"internal_node_id":"0.0-4.0-1.0-3.9-5.9","subject_id":"88"},{"stimulus":"\n          <div class=\"info_container\" style=\"position: relative; margin: auto; display: flex; justify-content: space-between;\">\n            <div class=\"trial\" style=\"text-align: center;\">\n              <p>You didn't win this round.</p></div>\n            </div>\n          </div>","rt":null,"response":null,"phase":"test","trial_type":"html-keyboard-response","trial_index":122,"time_elapsed":3493,"internal_node_id":"0.0-4.0-1.0-4.9","subject_id":"88"},{"stimulus":"\n        <p>Trial: <strong>11</strong></p>\n        <br>\n        <p>Place your bet on the next slide.</p>\n        ","rt":null,"response":null,"phase":"test","trial_type":"html-keyboard-response","trial_index":123,"time_elapsed":3493,"internal_node_id":"0.0-4.0-1.0-0.10","subject_id":"88"},{"stimulus":"\n        <div class=\"choice_container\" style=\"width: 600px; display: flex; justify-content: space-between; align-items: center;\">\n          <div class=\"RED\" style=\"text-align: right;\">RED</div>\n          <div class=\"BLACK\" style=\"text-align: left;\">BLACK</div>\n        </div>\n        <div class=\"fixation\">+</div>\n      ","rt":697,"response":"ArrowLeft","phase":"test","task":"choice_response","red":"ArrowLeft","trial_type":"html-keyboard-response","trial_index":124,"time_elapsed":3493,"internal_node_id":"0.0-4.0-1.0-1.10","subject_id":"88","color":"red"},{"stimulus":"\n          <div class=\"show_choice_container\">\n            <div class=\"card deg-0\" style=\"background: black;\"></div>\n            <p style=\"margin:0;\">Chosen option: <span class=\"BLACK\">BLACK</span></p>\n          </div>\n          <div class=\"fixation\">+</div>\n          ","rt":null,"response":null,"phase":"test","trial_type":"html-keyboard-response","trial_index":125,"time_elapsed":3494,"internal_node_id":"0.0-4.0-1.0-2.10","subject_id":"88"},{"stimulus":"<div class =\"card_deck\">\n              <div class =\"card deg-0\" style=\"background: grey\"></div>\n              <div class =\"card deg-72\" style=\"background: grey\"></div>\n              <div class =\"card deg-144\" style=\"background: grey\"></div>\n              <div class =\"card deg-216\" style=\"background: grey\"></div>\n              <div class =\"card deg-288\" style=\"background: grey\"></div>\n            </div>\n            <div class=\"fixation\">+</div>","rt":null,"response":null,"phase":"test","trial_type":"html-keyboard-response","trial_index":126,"time_elapsed":3495,"internal_node_id":"0.0-4.0-1.0-3.10-0.10","subject_id":"88"},{"stimulus":"<div class =\"card_deck\">\n              <div class =\"card deg-0\" style=\"background: red\"></div>\n              <div class =\"card deg-72\" style=\"background: grey\"></div>\n              <div class =\"card deg-144\" style=\"background: grey\"></div>\n              <div class =\"card deg-216\" style=\"background: grey\"></div>\n              <div class =\"card deg-288\" style=\"background: grey\"></div>\n            </div>\n            <div class=\"fixation\">+</div>\n            <div class=\"eegtrigger\"></div>","rt":null,"response":null,"phase":"test","task":"reveal","eeg_event_id":61,"card":1,"color":"red","sequence_id":13,"outcome":0,"participant_choice":"red","card_value":1,"wins_so_far":0,"trial_type":"html-keyboard-response","trial_index":127,"time_elapsed":3495,"internal_node_id":"0.0-4.0-1.0-3.10-1.10","subject_id":"88"},{"stimulus":"<div class =\"card_deck\">\n              <div class =\"card deg-0\" style=\"background: red\"></div>\n              <div class =\"card deg-72\" style=\"background: black\"></div>\n              <div class =\"card deg-144\" style=\"background: grey\"></div>\n              <div class =\"card deg-216\" style=\"background: grey\"></div>\n              <div class =\"card deg-288\" style=\"background: grey\"></div>\n            </div>\n            <div class=\"fixation\">+</div>\n            <div class=\"eegtrigger\"></div>","rt":null,"response":null,"phase":"test","task":"reveal","eeg_event_id":62,"card":2,"color":"black","sequence_id":13,"outcome":0,"participant_choice":"red","card_value":0,"wins_so_far":1,"trial_type":"html-keyboard-response","trial_index":128,"time_elapsed":3495,"internal_node_id":"0.0-4.0-1.0-3.10-2.10","subject_id":"88"},{"stimulus":"<div class =\"card_deck\">\n              <div class =\"card deg-0\" style=\"background: red\"></div>\n              <div class =\"card deg-72\" style=\"background: black\"></div>\n              <div class =\"card deg-144\" style=\"background: red\"></div>\n              <div class =\"card deg-216\" style=\"background: grey\"></div>\n              <div class =\"card deg-288\" style=\"background: grey\"></div>\n            </div>\n            <div class=\"fixation\">+</div>\n            <div class=\"eegtrigger\"></div>","rt":null,"response":null,"phase":"test","task":"reveal","eeg_event_id":63,"card":3,"color":"red","sequence_id":13,"outcome":0,"participant_choice":"red","card_value":1,"wins_so_far":1,"trial_type":"html-keyboard-response","trial_index":129,"time_elapsed":3495,"internal_node_id":"0.0-4.0-1.0-3.10-3.10","subject_id":"88"},{"stimulus":"<div class =\"card_deck\">\n              <div class =\"card deg-0\" style=\"background: red\"></div>\n              <div class =\"card deg-72\" style=\"background: black\"></div>\n              <div class =\"card deg-144\" style=\"background: red\"></div>\n              <div class =\"card deg-216\" style=\"background: red\"></div>\n              <div class =\"card deg-288\" style=\"background: grey\"></div>\n            </div>\n            <div class=\"fixation\">+</div>\n            <div class=\"eegtrigger\"></div>","rt":null,"response":null,"phase":"test","task":"reveal","eeg_event_id":64,"card":4,"color":"red","sequence_id":13,"outcome":0,"participant_choice":"red","card_value":1,"wins_so_far":2,"trial_type":"html-keyboard-response","trial_index":130,"time_elapsed":3496,"internal_node_id":"0.0-4.0-1.0-3.10-4.10","subject_id":"88"},{"stimulus":"<div class =\"card_deck\">\n              <div class =\"card deg-0\" style=\"background: red\"></div>\n              <div class =\"card deg-72\" style=\"background: black\"></div>\n              <div class =\"card deg-144\" style=\"background: red\"></div>\n              <div class =\"card deg-216\" style=\"background: red\"></div>\n              <div class =\"card deg-288\" style=\"background: black\"></div>\n            </div>\n            <div class=\"fixation\">+</div>\n            <div class=\"eegtrigger\"></div>","rt":null,"response":null,"phase":"test","task":"reveal","eeg_event_id":65,"card":5,"color":"black","sequence_id":13,"outcome":0,"participant_choice":"red","card_value":0,"wins_so_far":3,"trial_type":"html-keyboard-response","trial_index":131,"time_elapsed":3496,"internal_node_id":"0.0-4.0-1.0-3.10-5.10","subject_id":"88"},{"stimulus":"\n          <div class=\"info_container\" style=\"position: relative; margin: auto; display: flex; justify-content: space-between;\">\n            <div class=\"trial\" style=\"text-align: center;\">\n              <p>You won 20 cents!</p>\n            </div>\n          </div>","rt":null,"response":null,"phase":"test","trial_type":"html-keyboard-response","trial_index":132,"time_elapsed":3496,"internal_node_id":"0.0-4.0-1.0-4.10","subject_id":"88"},{"stimulus":"\n        <p>Trial: <strong>12</strong></p>\n        <br>\n        <p>Place your bet on the next slide.</p>\n        ","rt":null,"response":null,"phase":"test","trial_type":"html-keyboard-response","trial_index":133,"time_elapsed":3496,"internal_node_id":"0.0-4.0-1.0-0.11","subject_id":"88"},{"stimulus":"\n        <div class=\"choice_container\" style=\"width: 600px; display: flex; justify-content: space-between; align-items: center;\">\n          <div class=\"RED\" style=\"text-align: right;\">RED</div>\n          <div class=\"BLACK\" style=\"text-align: left;\">BLACK</div>\n        </div>\n        <div class=\"fixation\">+</div>\n      ","rt":529,"response":"ArrowLeft","phase":"test","task":"choice_response","red":"ArrowLeft","trial_type":"html-keyboard-response","trial_index":134,"time_elapsed":3496,"internal_node_id":"0.0-4.0-1.0-1.11","subject_id":"88","color":"red"},{"stimulus":"\n          <div class=\"show_choice_container\">\n            <div class=\"card deg-0\" style=\"background: black;\"></div>\n            <p style=\"margin:0;\">Chosen option: <span class=\"BLACK\">BLACK</span></p>\n          </div>\n          <div class=\"fixation\">+</div>\n          ","rt":null,"response":null,"phase":"test","trial_type":"html-keyboard-response","trial_index":135,"time_elapsed":3496,"internal_node_id":"0.0-4.0-1.0-2.11","subject_id":"88"},{"stimulus":"<div class =\"card_deck\">\n              <div class =\"card deg-0\" style=\"background: grey\"></div>\n              <div class =\"card deg-72\" style=\"background: grey\"></div>\n              <div class =\"card deg-144\" style=\"background: grey\"></div>\n              <div class =\"card deg-216\" style=\"background: grey\"></div>\n              <div class =\"card deg-288\" style=\"background: grey\"></div>\n            </div>\n            <div class=\"fixation\">+</div>","rt":null,"response":null,"phase":"test","trial_type":"html-keyboard-response","trial_index":136,"time_elapsed":3497,"internal_node_id":"0.0-4.0-1.0-3.11-0.11","subject_id":"88"},{"stimulus":"<div class =\"card_deck\">\n              <div class =\"card deg-0\" style=\"background: black\"></div>\n              <div class =\"card deg-72\" style=\"background: grey\"></div>\n              <div class =\"card deg-144\" style=\"background: grey\"></div>\n              <div class =\"card deg-216\" style=\"background: grey\"></div>\n              <div class =\"card deg-288\" style=\"background: grey\"></div>\n            </div>\n            <div class=\"fixation\">+</div>\n            <div class=\"eegtrigger\"></div>","rt":null,"response":null,"phase":"test","task":"reveal","eeg_event_id":66,"card":1,"color":"black","sequence_id":8,"outcome":0,"participant_choice":"red","card_value":0,"wins_so_far":0,"trial_type":"html-keyboard-response","trial_index":137,"time_elapsed":3498,"internal_node_id":"0.0-4.0-1.0-3.11-1.11","subject_id":"88"},{"stimulus":"<div class =\"card_deck\">\n              <div class =\"card deg-0\" style=\"background: black\"></div>\n              <div class =\"card deg-72\" style=\"background: red\"></div>\n              <div class =\"card deg-144\" style=\"background: grey\"></div>\n              <div class =\"card deg-216\" style=\"background: grey\"></div>\n              <div class =\"card deg-288\" style=\"background: grey\"></div>\n            </div>\n            <div class=\"fixation\">+</div>\n            <div class=\"eegtrigger\"></div>","rt":null,"response":null,"phase":"test","task":"reveal","eeg_event_id":67,"card":2,"color":"red","sequence_id":8,"outcome":0,"participant_choice":"red","card_value":1,"wins_so_far":0,"trial_type":"html-keyboard-response","trial_index":138,"time_elapsed":3498,"internal_node_id":"0.0-4.0-1.0-3.11-2.11","subject_id":"88"},{"stimulus":"<div class =\"card_deck\">\n              <div class =\"card deg-0\" style=\"background: black\"></div>\n              <div class =\"card deg-72\" style=\"background: red\"></div>\n              <div class =\"card deg-144\" style=\"background: black\"></div>\n              <div class =\"card deg-216\" style=\"background: grey\"></div>\n              <div class =\"card deg-288\" style=\"background: grey\"></div>\n            </div>\n            <div class=\"fixation\">+</div>\n            <div class=\"eegtrigger\"></div>","rt":null,"response":null,"phase":"test","task":"reveal","eeg_event_id":68,"card":3,"color":"black","sequence_id":8,"outcome":0,"participant_choice":"red","card_value":0,"wins_so_far":1,"trial_type":"html-keyboard-response","trial_index":139,"time_elapsed":3498,"internal_node_id":"0.0-4.0-1.0-3.11-3.11","subject_id":"88"},{"stimulus":"<div class =\"card_deck\">\n              <div class =\"card deg-0\" style=\"background: black\"></div>\n              <div class =\"card deg-72\" style=\"background: red\"></div>\n              <div class =\"card deg-144\" style=\"background: black\"></div>\n              <div class =\"card deg-216\" style=\"background: red\"></div>\n              <div class =\"card deg-288\" style=\"background: grey\"></div>\n            </div>\n            <div class=\"fixation\">+</div>\n            <div class=\"eegtrigger\"></div>","rt":null,"response":null,"phase":"test","task":"reveal","eeg_event_id":69,"card":4,"color":"red","sequence_id":8,"outcome":0,"participant_choice":"red","card_value":1,"wins_so_far":1,"trial_type":"html-keyboard-response","trial_index":140,"time_elapsed":3498,"internal_node_id":"0.0-4.0-1.0-3.11-4.11","subject_id":"88"},{"stimulus":"<div class =\"card_deck\">\n              <div class =\"card deg-0\" style=\"background: black\"></div>\n              <div class =\"card deg-72\" style=\"background: red\"></div>\n              <div class =\"card deg-144\" style=\"background: black\"></div>\n              <div class =\"card deg-216\" style=\"background: red\"></div>\n              <div class =\"card deg-288\" style=\"background: red\"></div>\n            </div>\n            <div class=\"fixation\">+</div>\n            <div class=\"eegtrigger\"></div>","rt":null,"response":null,"phase":"test","task":"reveal","eeg_event_id":70,"card":5,"color":"red","sequence_id":8,"outcome":0,"participant_choice":"red","card_value":1,"wins_so_far":2,"trial_type":"html-keyboard-response","trial_index":141,"time_elapsed":3499,"internal_node_id":"0.0-4.0-1.0-3.11-5.11","subject_id":"88"},{"stimulus":"\n          <div class=\"info_container\" style=\"position: relative; margin: auto; display: flex; justify-content: space-between;\">\n            <div class=\"trial\" style=\"text-align: center;\">\n              <p>You won 20 cents!</p>\n            </div>\n          </div>","rt":null,"response":null,"phase":"test","trial_type":"html-keyboard-response","trial_index":142,"time_elapsed":3499,"internal_node_id":"0.0-4.0-1.0-4.11","subject_id":"88"},{"stimulus":"\n        <p>Trial: <strong>13</strong></p>\n        <br>\n        <p>Place your bet on the next slide.</p>\n        ","rt":null,"response":null,"phase":"test","trial_type":"html-keyboard-response","trial_index":143,"time_elapsed":3499,"internal_node_id":"0.0-4.0-1.0-0.12","subject_id":"88"},{"stimulus":"\n        <div class=\"choice_container\" style=\"width: 600px; display: flex; justify-content: space-between; align-items: center;\">\n          <div class=\"RED\" style=\"text-align: right;\">RED</div>\n          <div class=\"BLACK\" style=\"text-align: left;\">BLACK</div>\n        </div>\n        <div class=\"fixation\">+</div>\n      ","rt":630,"response":"ArrowRight","phase":"test","task":"choice_response","red":"ArrowLeft","trial_type":"html-keyboard-response","trial_index":144,"time_elapsed":3499,"internal_node_id":"0.0-4.0-1.0-1.12","subject_id":"88","color":"black"},{"stimulus":"\n          <div class=\"show_choice_container\">\n            <div class=\"card deg-0\" style=\"background: black;\"></div>\n            <p style=\"margin:0;\">Chosen option: <span class=\"BLACK\">BLACK</span></p>\n          </div>\n          <div class=\"fixation\">+</div>\n          ","rt":null,"response":null,"phase":"test","trial_type":"html-keyboard-response","trial_index":145,"time_elapsed":3499,"internal_node_id":"0.0-4.0-1.0-2.12","subject_id":"88"},{"stimulus":"<div class =\"card_deck\">\n              <div class =\"card deg-0\" style=\"background: grey\"></div>\n              <div class =\"card deg-72\" style=\"background: grey\"></div>\n              <div class =\"card deg-144\" style=\"background: grey\"></div>\n              <div class =\"card deg-216\" style=\"background: grey\"></div>\n              <div class =\"card deg-288\" style=\"background: grey\"></div>\n            </div>\n            <div class=\"fixation\">+</div>","rt":null,"response":null,"phase":"test","trial_type":"html-keyboard-response","trial_index":146,"time_elapsed":3500,"internal_node_id":"0.0-4.0-1.0-3.12-0.12","subject_id":"88"},{"stimulus":"<div class =\"card_deck\">\n              <div class =\"card deg-0\" style=\"background: red\"></div>\n              <div class =\"card deg-72\" style=\"background: grey\"></div>\n              <div class =\"card deg-144\" style=\"background: grey\"></div>\n              <div class =\"card deg-216\" style=\"background: grey\"></div>\n              <div class =\"card deg-288\" style=\"background: grey\"></div>\n            </div>\n            <div class=\"fixation\">+</div>\n            <div class=\"eegtrigger\"></div>","rt":null,"response":null,"phase":"test","task":"reveal","eeg_event_id":71,"card":1,"color":"red","sequence_id":22,"outcome":1,"participant_choice":"black","card_value":0,"wins_so_far":0,"trial_type":"html-keyboard-response","trial_index":147,"time_elapsed":3500,"internal_node