[{"rt":106525,"response":{"subject_id":"03"},"trial_type":"survey-number","trial_index":0,"time_elapsed":106536,"internal_node_id":"0.0-0.0","subject_id":"03"},{"rt":187367,"stimulus":"\n        <p>Thank you for participating in this study.</p>\n        <p>Experimenter: please make sure the experiment is fullscreen (press F11).</p>\n        <p>Press B to begin.</p>\n      ","response":"b","trial_type":"html-keyboard-response","trial_index":1,"time_elapsed":293903,"internal_node_id":"0.0-1.0","subject_id":"03"},{"rt":3678,"stimulus":"\n        <p>Each trial will begin with your prediction. Do you think the five cards will contain more red cards or more black cards?</p>\n        <p>On the next slide, you will see the words\n          “<span class=\"RED\">RED</span>” and\n          “<span class=\"BLACK\">BLACK</span>”.</p>\n        <p>Click ← on your keyboard to choose\n          “<span class=\"RED\">RED</span>” or → to choose\n          “<span class=\"BLACK\">BLACK</span>”.</p>\n        <p>Press any key to continue.</p>\n      ","response":" ","trial_type":"html-keyboard-response","trial_index":2,"time_elapsed":297582,"internal_node_id":"0.0-2.0","subject_id":"03"},{"rt":13321,"stimulus":"\n        <div class=\"choice_container\" style=\"width: 600px; display: flex; justify-content: space-between; align-items: center;\">\n          <div class=\"RED\" style=\"text-align: right;\">RED</div>\n          <div class=\"BLACK\" style=\"text-align: left;\">BLACK</div>\n        </div>\n        <div class=\"fixation\">+</div>\n      ","response":"arrowleft","phase":"practice-1","task":"choice_response","red":"ArrowLeft","trial_type":"html-keyboard-response","trial_index":3,"time_elapsed":311006,"internal_node_id":"0.0-3.0-0.0","subject_id":"03","color":"red"},{"rt":null,"stimulus":"\n          <div class=\"show_choice_container\">\n            <div class=\"card deg-0\" style=\"background: red;\"></div>\n            <p style=\"margin:0;\">Chosen option: <span class=\"RED\">RED</span></p>\n          </div>\n          <div class=\"fixation\">+</div>\n          ","response":null,"phase":"practice-1","trial_type":"html-keyboard-response","trial_index":4,"time_elapsed":313010,"internal_node_id":"0.0-3.0-1.0","subject_id":"03"},{"rt":5371,"stimulus":"\n        <p>You've made your prediction. Next, the five cards will be revealed, one at a time.</p>\n        <p>If more cards in the deck are in your chosen color than the other color, you win 20 cents.</p>\n        <p>If not, you gain no money.</p>\n        <p>Press any key to see the cards revealed.</p>\n      ","response":" ","phase":"practice-1","trial_type":"html-keyboard-response","trial_index":5,"time_elapsed":318382,"internal_node_id":"0.0-3.0-2.0","subject_id":"03"},{"rt":null,"stimulus":"<div class =\"card_deck\">\n              <div class =\"card deg-0\" style=\"background: grey\"></div>\n              <div class =\"card deg-72\" style=\"background: grey\"></div>\n              <div class =\"card deg-144\" style=\"background: grey\"></div>\n              <div class =\"card deg-216\" style=\"background: grey\"></div>\n              <div class =\"card deg-288\" style=\"background: grey\"></div>\n            </div>\n            <div class=\"fixation\">+</div>","response":null,"phase":"practice-1","trial_type":"html-keyboard-response","trial_index":6,"time_elapsed":320493,"internal_node_id":"0.0-3.0-3.0-0.0","subject_id":"03"},{"rt":null,"stimulus":"<div class =\"card_deck\">\n              <div class =\"card deg-0\" style=\"background: red\"></div>\n              <div class =\"card deg-72\" style=\"background: grey\"></div>\n              <div class =\"card deg-144\" style=\"background: grey\"></div>\n              <div class =\"card deg-216\" style=\"background: grey\"></div>\n              <div class =\"card deg-288\" style=\"background: grey\"></div>\n            </div>\n            <div class=\"fixation\">+</div>\n            <div class=\"eegtrigger\"></div>","response":null,"phase":"practice-1","task":"reveal","eeg_event_id":1,"card":1,"color":"red","sequence_id":34,"outcome":null,"catch_n":0,"participant_choice":"red","card_value":1,"wins_so_far":0,"trial_type":"html-keyboard-response","trial_index":7,"time_elapsed":323509,"internal_node_id":"0.0-3.0-3.0-1.0","subject_id":"03"},{"rt":null,"stimulus":"<div class =\"card_deck\">\n              <div class =\"card deg-0\" style=\"background: red\"></div>\n              <div class =\"card deg-72\" style=\"background: red\"></div>\n              <div class =\"card deg-144\" style=\"background: grey\"></div>\n              <div class =\"card deg-216\" style=\"background: grey\"></div>\n              <div class =\"card deg-288\" style=\"background: grey\"></div>\n            </div>\n            <div class=\"fixation\">+</div>\n            <div class=\"eegtrigger\"></div>","response":null,"phase":"practice-1","task":"reveal","eeg_event_id":2,"card":2,"color":"red","sequence_id":34,"outcome":null,"catch_n":0,"participant_choice":"red","card_value":1,"wins_so_far":1,"trial_type":"html-keyboard-response","trial_index":8,"time_elapsed":326527,"internal_node_id":"0.0-3.0-3.0-2.0","subject_id":"03"},{"rt":null,"stimulus":"<div class =\"card_deck\">\n              <div class =\"card deg-0\" style=\"background: red\"></div>\n              <div class =\"card deg-72\" style=\"background: red\"></div>\n              <div class =\"card deg-144\" style=\"background: black\"></div>\n              <div class =\"card deg-216\" style=\"background: grey\"></div>\n              <div class =\"card deg-288\" style=\"background: grey\"></div>\n            </div>\n            <div class=\"fixation\">+</div>\n            <div class=\"eegtrigger\"></div>","response":null,"phase":"practice-1","task":"reveal","eeg_event_id":3,"card":3,"color":"black","sequence_id":34,"outcome":null,"catch_n":0,"participant_choice":"red","card_value":0,"wins_so_far":2,"trial_type":"html-keyboard-response","trial_index":9,"time_elapsed":329542,"internal_node_id":"0.0-3.0-3.0-3.0","subject_id":"03"},{"rt":null,"stimulus":"<div class =\"card_deck\">\n              <div class =\"card deg-0\" style=\"background: red\"></div>\n              <div class =\"card deg-72\" style=\"background: red\"></div>\n              <div class =\"card deg-144\" style=\"background: black\"></div>\n              <div class =\"card deg-216\" style=\"background: red\"></div>\n              <div class =\"card deg-288\" style=\"background: grey\"></div>\n            </div>\n            <div class=\"fixation\">+</div>\n            <div class=\"eegtrigger\"></div>","response":null,"phase":"practice-1","task":"reveal","eeg_event_id":4,"card":4,"color":"red","sequence_id":34,"outcome":null,"catch_n":0,"participant_choice":"red","card_value":1,"wins_so_far":2,"trial_type":"html-keyboard-response","trial_index":10,"time_elapsed":332559,"internal_node_id":"0.0-3.0-3.0-4.0","subject_id":"03"},{"rt":1982,"stimulus":"<div class =\"card_deck\">\n              <div class =\"card deg-0\" style=\"background: red\"></div>\n              <div class =\"card deg-72\" style=\"background: red\"></div>\n              <div class =\"card deg-144\" style=\"background: black\"></div>\n              <div class =\"card deg-216\" style=\"background: red\"></div>\n              <div class =\"card deg-288\" style=\"background: black\"></div>\n            </div>\n            <div class=\"fixation\">+</div>\n            <div class=\"eegtrigger\"></div>","response":"arrowleft","phase":"practice-1","task":"reveal","eeg_event_id":5,"card":5,"color":"black","sequence_id":34,"outcome":null,"catch_n":0,"participant_choice":"red","card_value":0,"wins_so_far":3,"trial_type":"html-keyboard-response","trial_index":11,"time_elapsed":335569,"internal_node_id":"0.0-3.0-3.0-5.0","subject_id":"03"},{"rt":70188,"stimulus":"\n          <p>You predicted correctly!</p>\n          \n          <p>Let's do one more practice round, this time without any instructions.</p>\n          <p>Remember, it's important for the experiment that you keep your gaze fixed on the <strong>+</strong> in the center and blink as little as possible.</p>\n          <p>Moving your eyes or blinking will add electrical noise to the data.</p>\n          <p>Press any key to start the practice trial.</p>","response":" ","phase":"practice-1","trial_type":"html-keyboard-response","trial_index":12,"time_elapsed":405758,"internal_node_id":"0.0-3.0-4.0","subject_id":"03"},{"rt":850,"stimulus":"\n        <div class=\"choice_container\" style=\"width: 600px; display: flex; justify-content: space-between; align-items: center;\">\n          <div class=\"RED\" style=\"text-align: right;\">RED</div>\n          <div class=\"BLACK\" style=\"text-align: left;\">BLACK</div>\n        </div>\n        <div class=\"fixation\">+</div>\n      ","response":"arrowright","phase":"practice-2","task":"choice_response","red":"ArrowLeft","trial_type":"html-keyboard-response","trial_index":13,"time_elapsed":406718,"internal_node_id":"0.0-4.0-0.0","subject_id":"03","color":"black"},{"rt":null,"stimulus":"\n          <div class=\"show_choice_container\">\n            <div class=\"card deg-0\" style=\"background: black;\"></div>\n            <p style=\"margin:0;\">Chosen option: <span class=\"BLACK\">BLACK</span></p>\n          </div>\n          <div class=\"fixation\">+</div>\n          ","response":null,"phase":"practice-2","trial_type":"html-keyboard-response","trial_index":14,"time_elapsed":408723,"internal_node_id":"0.0-4.0-1.0","subject_id":"03"},{"rt":null,"stimulus":"<div class =\"card_deck\">\n              <div class =\"card deg-0\" style=\"background: grey\"></div>\n              <div class =\"card deg-72\" style=\"background: grey\"></div>\n              <div class =\"card deg-144\" style=\"background: grey\"></div>\n              <div class =\"card deg-216\" style=\"background: grey\"></div>\n              <div class =\"card deg-288\" style=\"background: grey\"></div>\n            </div>\n            <div class=\"fixation\">+</div>","response":null,"phase":"practice-2","trial_type":"html-keyboard-response","trial_index":15,"time_elapsed":410725,"internal_node_id":"0.0-4.0-2.0-0.0","subject_id":"03"},{"rt":null,"stimulus":"<div class =\"card_deck\">\n              <div class =\"card deg-0\" style=\"background: black\"></div>\n              <div class =\"card deg-72\" style=\"background: grey\"></div>\n              <div class =\"card deg-144\" style=\"background: grey\"></div>\n              <div class =\"card deg-216\" style=\"background: grey\"></div>\n              <div class =\"card deg-288\" style=\"background: grey\"></div>\n            </div>\n            <div class=\"fixation\">+</div>\n            <div class=\"eegtrigger\"></div>","response":null,"phase":"practice-2","task":"reveal","eeg_event_id":6,"card":1,"color":"black","sequence_id":34,"outcome":null,"catch_n":0,"participant_choice":"black","card_value":1,"wins_so_far":0,"trial_type":"html-keyboard-response","trial_index":16,"time_elapsed":413727,"internal_node_id":"0.0-4.0-2.0-1.0","subject_id":"03"},{"rt":null,"stimulus":"<div class =\"card_deck\">\n              <div class =\"card deg-0\" style=\"background: black\"></div>\n              <div class =\"card deg-72\" style=\"background: black\"></div>\n              <div class =\"card deg-144\" style=\"background: grey\"></div>\n              <div class =\"card deg-216\" style=\"background: grey\"></div>\n              <div class =\"card deg-288\" style=\"background: grey\"></div>\n            </div>\n            <div class=\"fixation\">+</div>\n            <div class=\"eegtrigger\"></div>","response":null,"phase":"practice-2","task":"reveal","eeg_event_id":7,"card":2,"color":"black","sequence_id":34,"outcome":null,"catch_n":0,"participant_choice":"black","card_value":1,"wins_so_far":1,"trial_type":"html-keyboard-response","trial_index":17,"time_elapsed":416741,"internal_node_id":"0.0-4.0-2.0-2.0","subject_id":"03"},{"rt":null,"stimulus":"<div class =\"card_deck\">\n              <div class =\"card deg-0\" style=\"background: black\"></div>\n              <div class =\"card deg-72\" style=\"background: black\"></div>\n              <div class =\"card deg-144\" style=\"background: red\"></div>\n              <div class =\"card deg-216\" style=\"background: grey\"></div>\n              <div class =\"card deg-288\" style=\"background: grey\"></div>\n            </div>\n            <div class=\"fixation\">+</div>\n            <div class=\"eegtrigger\"></div>","response":null,"phase":"practice-2","task":"reveal","eeg_event_id":8,"card":3,"color":"red","sequence_id":34,"outcome":null,"catch_n":0,"participant_choice":"black","card_value":0,"wins_so_far":2,"trial_type":"html-keyboard-response","trial_index":18,"time_elapsed":419743,"internal_node_id":"0.0-4.0-2.0-3.0","subject_id":"03"},{"rt":null,"stimulus":"<div class =\"card_deck\">\n              <div class =\"card deg-0\" style=\"background: black\"></div>\n              <div class =\"card deg-72\" style=\"background: black\"></div>\n              <div class =\"card deg-144\" style=\"background: red\"></div>\n              <div class =\"card deg-216\" style=\"background: red\"></div>\n              <div class =\"card deg-288\" style=\"background: grey\"></div>\n            </div>\n            <div class=\"fixation\">+</div>\n            <div class=\"eegtrigger\"></div>","response":null,"phase":"practice-2","task":"reveal","eeg_event_id":9,"card":4,"color":"red","sequence_id":34,"outcome":null,"catch_n":0,"participant_choice":"black","card_value":0,"wins_so_far":2,"trial_type":"html-keyboard-response","trial_index":19,"time_elapsed":422758,"internal_node_id":"0.0-4.0-2.0-4.0","subject_id":"03"},{"rt":null,"stimulus":"<div class =\"card_deck\">\n              <div class =\"card deg-0\" style=\"background: black\"></div>\n              <div class =\"card deg-72\" style=\"background: black\"></div>\n              <div class =\"card deg-144\" style=\"background: red\"></div>\n              <div class =\"card deg-216\" style=\"background: red\"></div>\n              <div class =\"card deg-288\" style=\"background: black\"></div>\n            </div>\n            <div class=\"fixation\">+</div>\n            <div class=\"eegtrigger\"></div>","response":null,"phase":"practice-2","task":"reveal","eeg_event_id":10,"card":5,"color":"black","sequence_id":34,"outcome":null,"catch_n":0,"participant_choice":"black","card_value":1,"wins_so_far":2,"trial_type":"html-keyboard-response","trial_index":20,"time_elapsed":425774,"internal_node_id":"0.0-4.0-2.0-5.0","subject_id":"03"},{"rt":3536,"stimulus":"\n              <p>You predicted correctly!</p>\n          \n          <p>During the experiment, sometimes one of the cards will have a white X instead of being red or black.</p>\n          <p>As soon as you see a white X, press either arrow key as quickly as possible.</p>\n          <p>On trials with a white X, you cannot win any money.</p>\n          <p>But, <strong>if you respond too slowly to the white X (more than 1.5 seconds), you will lose $1.00.</strong></p>\n          <p>We'll show you an example now. Press any key to practice a trial with a white X.</p>","response":" ","phase":"practice-2","trial_type":"html-keyboard-response","trial_index":21,"time_elapsed":429311,"internal_node_id":"0.0-4.0-3.0","subject_id":"03"},{"rt":null,"stimulus":"<div class =\"card_deck\">\n              <div class =\"card deg-0\" style=\"background: grey\"></div>\n              <div class =\"card deg-72\" style=\"background: grey\"></div>\n              <div class =\"card deg-144\" style=\"background: grey\"></div>\n              <div class =\"card deg-216\" style=\"background: grey\"></div>\n              <div class =\"card deg-288\" style=\"background: grey\"></div>\n            </div>\n            <div class=\"fixation\">+</div>","response":null,"trial_type":"html-keyboard-response","trial_index":22,"time_elapsed":431423,"internal_node_id":"0.0-5.0-0.0-0.0","subject_id":"03"},{"rt":null,"stimulus":"<div class =\"card_deck\">\n              <div class =\"card deg-0\" style=\"background: black\"></div>\n              <div class =\"card deg-72\" style=\"background: grey\"></div>\n              <div class =\"card deg-144\" style=\"background: grey\"></div>\n              <div class =\"card deg-216\" style=\"background: grey\"></div>\n              <div class =\"card deg-288\" style=\"background: grey\"></div>\n            </div>\n            <div class=\"fixation\">+</div>\n            ","response":null,"task":"catch","eeg_event_id":null,"card":1,"color":"black","sequence_id":33,"outcome":null,"catch_n":2,"participant_choice":"black","card_value":null,"wins_so_far":0,"trial_type":"html-keyboard-response","trial_index":23,"time_elapsed":434425,"internal_node_id":"0.0-5.0-0.0-1.0","subject_id":"03"},{"rt":373,"stimulus":"<div class =\"card_deck\">\n              <div class =\"card deg-0\" style=\"background: black\"></div>\n              <div class =\"catch_card deg-72\" ></div>\n              <div class =\"card deg-144\" style=\"background: grey\"></div>\n              <div class =\"card deg-216\" style=\"background: grey\"></div>\n              <div class =\"card deg-288\" style=\"background: grey\"></div>\n            </div>\n            <div class=\"fixation\">+</div>\n            ","response":"arrowleft","task":"catch","eeg_event_id":null,"card":2,"color":"black","sequence_id":33,"outcome":null,"catch_n":2,"participant_choice":"black","card_value":null,"wins_so_far":null,"trial_type":"html-keyboard-response","trial_index":24,"time_elapsed":437440,"internal_node_id":"0.0-5.0-0.0-2.0","subject_id":"03"},{"rt":null,"stimulus":"<div class =\"card_deck\">\n              <div class =\"card deg-0\" style=\"background: black\"></div>\n              <div class =\"catch_card deg-72\" ></div>\n              <div class =\"card deg-144\" style=\"background: red\"></div>\n              <div class =\"card deg-216\" style=\"background: grey\"></div>\n              <div class =\"card deg-288\" style=\"background: grey\"></div>\n            </div>\n            <div class=\"fixation\">+</div>\n            ","response":null,"task":"catch","eeg_event_id":null,"card":3,"color":"red","sequence_id":33,"outcome":null,"catch_n":2,"participant_choice":"black","card_value":null,"wins_so_far":null,"trial_type":"html-keyboard-response","trial_index":25,"time_elapsed":440441,"internal_node_id":"0.0-5.0-0.0-3.0","subject_id":"03"},{"rt":228,"stimulus":"<div class =\"card_deck\">\n              <div class =\"card deg-0\" style=\"background: black\"></div>\n              <div class =\"catch_card deg-72\" ></div>\n              <div class =\"card deg-144\" style=\"background: red\"></div>\n              <div class =\"card deg-216\" style=\"background: black\"></div>\n              <div class =\"card deg-288\" style=\"background: grey\"></div>\n            </div>\n            <div class=\"fixation\">+</div>\n            ","response":"arrowright","task":"catch","eeg_event_id":null,"card":4,"color":"black","sequence_id":33,"outcome":null,"catch_n":2,"participant_choice":"black","card_value":null,"wins_so_far":null,"trial_type":"html-keyboard-response","trial_index":26,"time_elapsed":443457,"internal_node_id":"0.0-5.0-0.0-4.0","subject_id":"03"},{"rt":null,"stimulus":"<div class =\"card_deck\">\n              <div class =\"card deg-0\" style=\"background: black\"></div>\n              <div class =\"catch_card deg-72\" ></div>\n              <div class =\"card deg-144\" style=\"background: red\"></div>\n              <div class =\"card deg-216\" style=\"background: black\"></div>\n              <div class =\"card deg-288\" style=\"background: black\"></div>\n            </div>\n            <div class=\"fixation\">+</div>\n            ","response":null,"task":"catch","eeg_event_id":null,"card":5,"color":"black","sequence_id":33,"outcome":null,"catch_n":2,"participant_choice":"black","card_value":null,"wins_so_far":null,"trial_type":"html-keyboard-response","trial_index":27,"time_elapsed":446473,"internal_node_id":"0.0-5.0-0.0-5.0","subject_id":"03"},{"rt":58196,"stimulus":"\n          <p>You are ready to begin the experiment.</p>\n          <p>Please keep your gaze fixed on the <strong>+</strong> in the center and blink as little as possible.</p>\n          <p>You may move your eyes and blink whenever the + is not on the screen.</p>\n          <p>If you have any questions, please ask the experimenter now.</p>\n          <p>Once the experimenter gives you the OK, press any key to begin the real trials.</p>","response":"arrowright","trial_type":"html-keyboard-response","trial_index":28,"time_elapsed":504669,"internal_node_id":"0.0-5.0-1.0","subject_id":"03"},{"rt":null,"stimulus":"\n        <p>Block 1 of 5 is about to start.</p>\n        ","response":null,"phase":"test","trial_type":"html-keyboard-response","trial_index":29,"time_elapsed":506788,"internal_node_id":"0.0-6.0-0.0","subject_id":"03"},{"rt":1944,"stimulus":"\n        <div class=\"choice_container\" style=\"width: 600px; display: flex; justify-content: space-between; align-items: center;\">\n          <div class=\"RED\" style=\"text-align: right;\">RED</div>\n          <div class=\"BLACK\" style=\"text-align: left;\">BLACK</div>\n        </div>\n        <div class=\"fixation\">+</div>\n      ","response":"arrowleft","phase":"test","task":"choice_response","red":"ArrowLeft","trial_type":"html-keyboard-response","trial_index":30,"time_elapsed":508733,"internal_node_id":"0.0-6.0-1.0-0.0","subject_id":"03","color":"red"},{"rt":null,"stimulus":"\n          <div class=\"show_choice_container\">\n            <div class=\"card deg-0\" style=\"background: red;\"></div>\n            <p style=\"margin:0;\">Chosen option: <span class=\"RED\">RED</span></p>\n          </div>\n          <div class=\"fixation\">+</div>\n          ","response":null,"phase":"test","trial_type":"html-keyboard-response","trial_index":31,"time_elapsed":510738,"internal_node_id":"0.0-6.0-1.0-1.0","subject_id":"03"},{"rt":null,"stimulus":"<div class =\"card_deck\">\n              <div class =\"card deg-0\" style=\"background: grey\"></div>\n              <div class =\"card deg-72\" style=\"background: grey\"></div>\n              <div class =\"card deg-144\" style=\"background: grey\"></div>\n              <div class =\"card deg-216\" style=\"background: grey\"></div>\n              <div class =\"card deg-288\" style=\"background: grey\"></div>\n            </div>\n            <div class=\"fixation\">+</div>","response":null,"phase":"test","trial_type":"html-keyboard-response","trial_index":32,"time_elapsed":512740,"internal_node_id":"0.0-6.0-1.0-2.0-0.0","subject_id":"03"},{"rt":null,"stimulus":"<div class =\"card_deck\">\n              <div class =\"card deg-0\" style=\"background: black\"></div>\n              <div class =\"card deg-72\" style=\"background: grey\"></div>\n              <div class =\"card deg-144\" style=\"background: grey\"></div>\n              <div class =\"card deg-216\" style=\"background: grey\"></div>\n              <div class =\"card deg-288\" style=\"background: grey\"></div>\n            </div>\n            <div class=\"fixation\">+</div>\n            ","response":null,"phase":"test","task":"catch","eeg_event_id":null,"card":1,"color":"black","sequence_id":33,"outcome":null,"catch_n":2,"participant_choice":"red","card_value":null,"wins_so_far":0,"trial_type":"html-keyboard-response","trial_index":33,"time_elapsed":515755,"internal_node_id":"0.0-6.0-1.0-2.0-1.0","subject_id":"03"},{"rt":786,"stimulus":"<div class =\"card_deck\">\n              <div class =\"card deg-0\" style=\"background: black\"></div>\n              <div class =\"catch_card deg-72\" ></div>\n              <div class =\"card deg-144\" style=\"background: grey\"></div>\n              <div class =\"card deg-216\" style=\"background: grey\"></div>\n              <div class =\"card deg-288\" style=\"background: grey\"></div>\n            </div>\n            <div class=\"fixation\">+</div>\n            ","response":"arrowleft","phase":"test","task":"catch","eeg_event_id":null,"card":2,"color":"red","sequence_id":33,"outcome":null,"catch_n":2,"participant_choice":"red","card_value":null,"wins_so_far":null,"trial_type":"html-keyboard-response","trial_index":34,"time_elapsed":518756,"internal_node_id":"0.0-6.0-1.0-2.0-2.0","subject_id":"03"},{"rt":null,"stimulus":"<div class =\"card_deck\">\n              <div class =\"card deg-0\" style=\"background: black\"></div>\n              <div class =\"catch_card deg-72\" ></div>\n              <div class =\"card deg-144\" style=\"background: red\"></div>\n              <div class =\"card deg-216\" style=\"background: grey\"></div>\n              <div class =\"card deg-288\" style=\"background: grey\"></div>\n            </div>\n            <div class=\"fixation\">+</div>\n            ","response":null,"phase":"test","task":"catch","eeg_event_id":null,"card":3,"color":"red","sequence_id":33,"outcome":null,"catch_n":2,"participant_choice":"red","card_value":null,"wins_so_far":null,"trial_type":"html-keyboard-response","trial_index":35,"time_elapsed":521772,"internal_node_id":"0.0-6.0-1.0-2.0-3.0","subject_id":"03"},{"rt":null,"stimulus":"<div class =\"card_deck\">\n              <div class =\"card deg-0\" style=\"background: black\"></div>\n              <div class =\"catch_card deg-72\" ></div>\n              <div class =\"card deg-144\" style=\"background: red\"></div>\n              <div class =\"card deg-216\" style=\"background: red\"></div>\n              <div class =\"card deg-288\" style=\"background: grey\"></div>\n            </div>\n            <div class=\"fixation\">+</div>\n            ","response":null,"phase":"test","task":"catch","eeg_event_id":null,"card":4,"color":"red","sequence_id":33,"outcome":null,"catch_n":2,"participant_choice":"red","card_value":null,"wins_so_far":null,"trial_type":"html-keyboard-response","trial_index":36,"time_elapsed":524788,"internal_node_id":"0.0-6.0-1.0-2.0-4.0","subject_id":"03"},{"rt":null,"stimulus":"<div class =\"card_deck\">\n              <div class =\"card deg-0\" style=\"background: black\"></div>\n              <div class =\"catch_card deg-72\" ></div>\n              <div class =\"card deg-144\" style=\"background: red\"></div>\n              <div class =\"card deg-216\" style=\"background: red\"></div>\n              <div class =\"card deg-288\" style=\"background: red\"></div>\n            </div>\n            <div class=\"fixation\">+</div>\n            ","response":null,"phase":"test","task":"catch","eeg_event_id":null,"card":5,"color":"red","sequence_id":33,"outcome":null,"catch_n":2,"participant_choice":"red","card_value":null,"wins_so_far":null,"trial_type":"html-keyboard-response","trial_index":37,"time_elapsed":527790,"internal_node_id":"0.0-6.0-1.0-2.0-5.0","subject_id":"03"},{"rt":null,"stimulus":"<p>Good job! You responded quickly to the white X.</p>","response":null,"phase":"test","trial_type":"html-keyboard-response","trial_index":38,"time_elapsed":529794,"internal_node_id":"0.0-6.0-1.0-3.0","subject_id":"03"},{"rt":2506,"stimulus":"\n        <div class=\"choice_container\" style=\"width: 600px; display: flex; justify-content: space-between; align-items: center;\">\n          <div class=\"RED\" style=\"text-align: right;\">RED</div>\n          <div class=\"BLACK\" style=\"text-align: left;\">BLACK</div>\n        </div>\n        <div class=\"fixation\">+</div>\n      ","response":"arrowleft","phase":"test","task":"choice_response","red":"ArrowLeft","trial_type":"html-keyboard-response","trial_index":39,"time_elapsed":532302,"internal_node_id":"0.0-6.0-1.0-0.1","subject_id":"03","color":"red"},{"rt":null,"stimulus":"\n          <div class=\"show_choice_container\">\n            <div class=\"card deg-0\" style=\"background: red;\"></div>\n            <p style=\"margin:0;\">Chosen option: <span class=\"RED\">RED</span></p>\n          </div>\n          <div class=\"fixation\">+</div>\n          ","response":null,"phase":"test","trial_type":"html-keyboard-response","trial_index":40,"time_elapsed":534306,"internal_node_id":"0.0-6.0-1.0-1.1","subject_id":"03"},{"rt":null,"stimulus":"<div class =\"card_deck\">\n              <div class =\"card deg-0\" style=\"background: grey\"></div>\n              <div class =\"card deg-72\" style=\"background: grey\"></div>\n              <div class =\"card deg-144\" style=\"background: grey\"></div>\n              <div class =\"card deg-216\" style=\"background: grey\"></div>\n              <div class =\"card deg-288\" style=\"background: grey\"></div>\n            </div>\n            <div class=\"fixation\">+</div>","response":null,"phase":"test","trial_type":"html-keyboard-response","trial_index":41,"time_elapsed":536322,"internal_node_id":"0.0-6.0-1.0-2.1-0.1","subject_id":"03"},{"rt":null,"stimulus":"<div class =\"card_deck\">\n              <div class =\"card deg-0\" style=\"background: red\"></div>\n              <div class =\"card deg-72\" style=\"background: grey\"></div>\n              <div class =\"card deg-144\" style=\"background: grey\"></div>\n              <div class =\"card deg-216\" style=\"background: grey\"></div>\n              <div class =\"card deg-288\" style=\"background: grey\"></div>\n            </div>\n            <div class=\"fixation\">+</div>\n            <div class=\"eegtrigger\"></div>","response":null,"phase":"test","task":"reveal","eeg_event_id":11,"card":1,"color":"red","sequence_id":18,"outcome":1,"catch_n":0,"participant_choice":"red","card_value":1,"wins_so_far":0,"trial_type":"html-keyboard-response","trial_index":42,"time_elapsed":539338,"internal_node_id":"0.0-6.0-1.0-2.1-1.1","subject_id":"03"},{"rt":null,"stimulus":"<div class =\"card_deck\">\n              <div class =\"card deg-0\" style=\"background: red\"></div>\n              <div class =\"card deg-72\" style=\"background: black\"></div>\n              <div class =\"card deg-144\" style=\"background: grey\"></div>\n              <div class =\"card deg-216\" style=\"background: grey\"></div>\n              <div class =\"card deg-288\" style=\"background: grey\"></div>\n            </div>\n            <div class=\"fixation\">+</div>\n            <div class=\"eegtrigger\"></div>","response":null,"phase":"test","task":"reveal","eeg_event_id":12,"card":2,"color":"black","sequence_id":18,"outcome":1,"catch_n":0,"participant_choice":"red","card_value":0,"wins_so_far":1,"trial_type":"html-keyboard-response","trial_index":43,"time_elapsed":542341,"internal_node_id":"0.0-6.0-1.0-2.1-2.1","subject_id":"03"},{"rt":null,"stimulus":"<div class =\"card_deck\">\n              <div class =\"card deg-0\" style=\"background: red\"></div>\n              <div class =\"card deg-72\" style=\"background: black\"></div>\n              <div class =\"card deg-144\" style=\"background: black\"></div>\n              <div class =\"card deg-216\" style=\"background: grey\"></div>\n              <div class =\"card deg-288\" style=\"background: grey\"></div>\n            </div>\n            <div class=\"fixation\">+</div>\n            <div class=\"eegtrigger\"></div>","response":null,"phase":"test","task":"reveal","eeg_event_id":13,"card":3,"color":"black","sequence_id":18,"outcome":1,"catch_n":0,"participant_choice":"red","card_value":0,"wins_so_far":1,"trial_type":"html-keyboard-response","trial_index":44,"time_elapsed":545356,"internal_node_id":"0.0-6.0-1.0-2.1-3.1","subject_id":"03"},{"rt":null,"stimulus":"<div class =\"card_deck\">\n              <div class =\"card deg-0\" style=\"background: red\"></div>\n              <div class =\"card deg-72\" style=\"background: black\"></div>\n              <div class =\"card deg-144\" style=\"background: black\"></div>\n              <div class =\"card deg-216\" style=\"background: black\"></div>\n              <div class =\"card deg-288\" style=\"background: grey\"></div>\n            </div>\n            <div class=\"fixation\">+</div>\n            <div class=\"eegtrigger\"></div>","response":null,"phase":"test","task":"reveal","eeg_event_id":14,"card":4,"color":"black","sequence_id":18,"outcome":1,"catch_n":0,"participant_choice":"red","card_value":0,"wins_so_far":1,"trial_type":"html-keyboard-response","trial_index":45,"time_elapsed":548373,"internal_node_id":"0.0-6.0-1.0-2.1-4.1","subject_id":"03"},{"rt":null,"stimulus":"<div class =\"card_deck\">\n              <div class =\"card deg-0\" style=\"background: red\"></div>\n              <div class =\"card deg-72\" style=\"background: black\"></div>\n              <div class =\"card deg-144\" style=\"background: black\"></div>\n              <div class =\"card deg-216\" style=\"background: black\"></div>\n              <div class =\"card deg-288\" style=\"background: black\"></div>\n            </div>\n            <div class=\"fixation\">+</div>\n            <div class=\"eegtrigger\"></div>","response":null,"phase":"test","task":"reveal","eeg_event_id":15,"card":5,"color":"black","sequence_id":18,"outcome":1,"catch_n":0,"participant_choice":"red","card_value":0,"wins_so_far":1,"trial_type":"html-keyboard-response","trial_index":46,"time_elapsed":551390,"internal_node_id":"0.0-6.0-1.0-2.1-5.1","subject_id":"03"},{"rt":null,"stimulus":"<p>You didn't win this round.</p>","response":null,"phase":"test","trial_type":"html-keyboard-response","trial_index":47,"time_elapsed":553405,"internal_node_id":"0.0-6.0-1.0-3.1","subject_id":"03"},{"rt":1488,"stimulus":"\n        <div class=\"choice_container\" style=\"width: 600px; display: flex; justify-content: space-between; align-items: center;\">\n          <div class=\"RED\" style=\"text-align: right;\">RED</div>\n          <div class=\"BLACK\" style=\"text-align: left;\">BLACK</div>\n        </div>\n        <div class=\"fixation\">+</div>\n      ","response":"arrowright","phase":"test","task":"choice_response","red":"ArrowLeft","trial_type":"html-keyboard-response","trial_index":48,"time_elapsed":554894,"internal_node_id":"0.0-6.0-1.0-0.2","subject_id":"03","color":"black"},{"rt":null,"stimulus":"\n          <div class=\"show_choice_container\">\n            <div class=\"card deg-0\" style=\"background: black;\"></div>\n            <p style=\"margin:0;\">Chosen option: <span class=\"BLACK\">BLACK</span></p>\n          </div>\n          <div class=\"fixation\">+</div>\n          ","response":null,"phase":"test","trial_type":"html-keyboard-response","trial_index":49,"time_elapsed":556906,"internal_node_id":"0.0-6.0-1.0-1.2","subject_id":"03"},{"rt":null,"stimulus":"<div class =\"card_deck\">\n              <div class =\"card deg-0\" style=\"background: grey\"></div>\n              <div class =\"card deg-72\" style=\"background: grey\"></div>\n              <div class =\"card deg-144\" style=\"background: grey\"></div>\n              <div class =\"card deg-216\" style=\"background: grey\"></div>\n              <div class =\"card deg-288\" style=\"background: grey\"></div>\n            </div>\n            <div class=\"fixation\">+</div>","response":null,"phase":"test","trial_type":"html-keyboard-response","trial_index":50,"time_elapsed":558921,"internal_node_id":"0.0-6.0-1.0-2.2-0.2","subject_id":"03"},{"rt":null,"stimulus":"<div class =\"card_deck\">\n              <div class =\"card deg-0\" style=\"background: black\"></div>\n              <div class =\"card deg-72\" style=\"background: grey\"></div>\n              <div class =\"card deg-144\" style=\"background: grey\"></div>\n              <div class =\"card deg-216\" style=\"background: grey\"></div>\n              <div class =\"card deg-288\" style=\"background: grey\"></div>\n            </div>\n            <div class=\"fixation\">+</div>\n            <div class=\"eegtrigger\"></div>","response":null,"phase":"test","task":"reveal","eeg_event_id":16,"card":1,"color":"black","sequence_id":13,"outcome":0,"catch_n":0,"participant_choice":"black","card_value":1,"wins_so_far":0,"trial_type":"html-keyboard-response","trial_index":51,"time_elapsed":561922,"internal_node_id":"0.0-6.0-1.0-2.2-1.2","subject_id":"03"},{"rt":null,"stimulus":"<div class =\"card_deck\">\n              <div class =\"card deg-0\" style=\"background: black\"></div>\n              <div class =\"card deg-72\" style=\"background: red\"></div>\n              <div class =\"card deg-144\" style=\"background: grey\"></div>\n              <div class =\"card deg-216\" style=\"background: grey\"></div>\n              <div class =\"card deg-288\" style=\"background: grey\"></div>\n            </div>\n            <div class=\"fixation\">+</div>\n            <div class=\"eegtrigger\"></div>","response":null,"phase":"test","task":"reveal","eeg_event_id":17,"card":2,"color":"red","sequence_id":13,"outcome":0,"catch_n":0,"participant_choice":"black","card_value":0,"wins_so_far":1,"trial_type":"html-keyboard-response","trial_index":52,"time_elapsed":564941,"internal_node_id":"0.0-6.0-1.0-2.2-2.2","subject_id":"03"},{"rt":null,"stimulus":"<div class =\"card_deck\">\n              <div class =\"card deg-0\" style=\"background: black\"></div>\n              <div class =\"card deg-72\" style=\"background: red\"></div>\n              <div class =\"card deg-144\" style=\"background: black\"></div>\n              <div class =\"card deg-216\" style=\"background: grey\"></div>\n              <div class =\"card deg-288\" style=\"background: grey\"></div>\n            </div>\n            <div class=\"fixation\">+</div>\n            <div class=\"eegtrigger\"></div>","response":null,"phase":"test","task":"reveal","eeg_event_id":18,"card":3,"color":"black","sequence_id":13,"outcome":0,"catch_n":0,"participant_choice":"black","card_value":1,"wins_so_far":1,"trial_type":"html-keyboard-response","trial_index":53,"time_elapsed":567958,"internal_node_id":"0.0-6.0-1.0-2.2-3.2","subject_id":"03"},{"rt":null,"stimulus":"<div class =\"card_deck\">\n              <div class =\"card deg-0\" style=\"background: black\"></div>\n              <div class =\"card deg-72\" style=\"background: red\"></div>\n              <div class =\"card deg-144\" style=\"background: black\"></div>\n              <div class =\"card deg-216\" style=\"background: black\"></div>\n              <div class =\"card deg-288\" style=\"background: grey\"></div>\n            </div>\n            <div class=\"fixation\">+</div>\n            <div class=\"eegtrigger\"></div>","response":null,"phase":"test","task":"reveal","eeg_event_id":19,"card":4,"color":"black","sequence_id":13,"outcome":0,"catch_n":0,"participant_choice":"black","card_value":1,"wins_so_far":2,"trial_type":"html-keyboard-response","trial_index":54,"time_elapsed":570959,"internal_node_id":"0.0-6.0-1.0-2.2-4.2","subject_id":"03"},{"rt":null,"stimulus":"<div class =\"card_deck\">\n              <div class =\"card deg-0\" style=\"background: black\"></div>\n              <div class =\"card deg-72\" style=\"background: red\"></div>\n              <div class =\"card deg-144\" style=\"background: black\"></div>\n              <div class =\"card deg-216\" style=\"background: black\"></div>\n              <div class =\"card deg-288\" style=\"background: red\"></div>\n            </div>\n            <div class=\"fixation\">+</div>\n            <div class=\"eegtrigger\"></div>","response":null,"phase":"test","task":"reveal","eeg_event_id":20,"card":5,"color":"red","sequence_id":13,"outcome":0,"catch_n":0,"participant_choice":"black","card_value":0,"wins_so_far":3,"trial_type":"html-keyboard-response","trial_index":55,"time_elapsed":573975,"internal_node_id":"0.0-6.0-1.0-2.2-5.2","subject_id":"03"},{"rt":null,"stimulus":"<p>You won 20 cents!</p>","response":null,"phase":"test","trial_type":"html-keyboard-response","trial_index":56,"time_elapsed":575990,"internal_node_id":"0.0-6.0-1.0-3.2","subject_id":"03"},{"rt":585,"stimulus":"\n        <div class=\"choice_container\" style=\"width: 600px; display: flex; justify-content: space-between; align-items: center;\">\n          <div class=\"RED\" style=\"text-align: right;\">RED</div>\n          <div class=\"BLACK\" style=\"text-align: left;\">BLACK</div>\n        </div>\n        <div class=\"fixation\">+</div>\n      ","response":"arrowright","phase":"test","task":"choice_response","red":"ArrowLeft","trial_type":"html-keyboard-response","trial_index":57,"time_elapsed":576575,"internal_node_id":"0.0-6.0-1.0-0.3","subject_id":"03","color":"black"},{"rt":null,"stimulus":"\n          <div class=\"show_choice_container\">\n            <div class=\"card deg-0\" style=\"background: black;\"></div>\n            <p style=\"margin:0;\">Chosen option: <span class=\"BLACK\">BLACK</span></p>\n          </div>\n          <div class=\"fixation\">+</div>\n          ","response":null,"phase":"test","trial_type":"html-keyboard-response","trial_index":58,"time_elapsed":578590,"internal_node_id":"0.0-6.0-1.0-1.3","subject_id":"03"},{"rt":null,"stimulus":"<div class =\"card_deck\">\n              <div class =\"card deg-0\" style=\"background: grey\"></div>\n              <div class =\"card deg-72\" style=\"background: grey\"></div>\n              <div class =\"card deg-144\" style=\"background: grey\"></div>\n              <div class =\"card deg-216\" style=\"background: grey\"></div>\n              <div class =\"card deg-288\" style=\"background: grey\"></div>\n            </div>\n            <div class=\"fixation\">+</div>","response":null,"phase":"test","trial_type":"html-keyboard-response","trial_index":59,"time_elapsed":580606,"internal_node_id":"0.0-6.0-1.0-2.3-0.3","subject_id":"03"},{"rt":null,"stimulus":"<div class =\"card_deck\">\n              <div class =\"card deg-0\" style=\"background: red\"></div>\n              <div class =\"card deg-72\" style=\"background: grey\"></div>\n              <div class =\"card deg-144\" style=\"background: grey\"></div>\n              <div class =\"card deg-216\" style=\"background: grey\"></div>\n              <div class =\"card deg-288\" style=\"background: grey\"></div>\n            </div>\n            <div class=\"fixation\">+</div>\n            <div class=\"eegtrigger\"></div>","response":null,"phase":"test","task":"reveal","eeg_event_id":21,"card":1,"color":"red","sequence_id":22,"outcome":1,"catch_n":0,"participant_choice":"black","card_value":0,"wins_so_far":0,"trial_type":"html-keyboard-response","trial_index":60,"time_elapsed":583608,"internal_node_id":"0.0-6.0-1.0-2.3-1.3","subject_id":"03"},{"rt":null,"stimulus":"<div class =\"card_deck\">\n              <div class =\"card deg-0\" style=\"background: red\"></div>\n              <div class =\"card deg-72\" style=\"background: red\"></div>\n              <div class =\"card deg-144\" style=\"background: grey\"></div>\n              <div class =\"card deg-216\" style=\"background: grey\"></div>\n              <div class =\"card deg-288\" style=\"background: grey\"></div>\n            </div>\n            <div class=\"fixation\">+</div>\n            <div class=\"eegtrigger\"></div>","response":null,"phase":"test","task":"reveal","eeg_event_id":22,"card":2,"color":"red","sequence_id":22,"outcome":1,"catch_n":0,"participant_choice":"black","card_value":0,"wins_so_far":0,"trial_type":"html-keyboard-response","trial_index":61,"time_elapsed":586625,"internal_node_id":"0.0-6.0-1.0-2.3-2.3","subject_id":"03"},{"rt":null,"stimulus":"<div class =\"card_deck\">\n              <div class =\"card deg-0\" style=\"background: red\"></div>\n              <div class =\"card deg-72\" style=\"background: red\"></div>\n              <div class =\"card deg-144\" style=\"background: red\"></div>\n              <div class =\"card deg-216\" style=\"background: grey\"></div>\n              <div class =\"card deg-288\" style=\"background: grey\"></div>\n            </div>\n            <div class=\"fixation\">+</div>\n            <div class=\"eegtrigger\"></div>","response":null,"phase":"test","task":"reveal","eeg_event_id":23,"card":3,"color":"red","sequence_id":22,"outcome":1,"catch_n":0,"participant_choice":"black","card_value":0,"wins_so_far":0,"trial_type":"html-keyboard-response","trial_index":62,"time_elapsed":589627,"internal_node_id":"0.0-6.0-1.0-2.3-3.3","subject_id":"03"},{"rt":null,"stimulus":"<div class =\"card_deck\">\n              <div class =\"card deg-0\" style=\"background: red\"></div>\n              <div class =\"card deg-72\" style=\"background: red\"></div>\n              <div class =\"card deg-144\" style=\"background: red\"></div>\n              <div class =\"card deg-216\" style=\"background: red\"></div>\n              <div class =\"card deg-288\" style=\"background: grey\"></div>\n            </div>\n            <div class=\"fixation\">+</div>\n            <div class=\"eegtrigger\"></div>","response":null,"phase":"test","task":"reveal","eeg_event_id":24,"card":4,"color":"red","sequence_id":22,"outcome":1,"catch_n":0,"participant_choice":"black","card_value":0,"wins_so_far":0,"trial_type":"html-keyboard-response","trial_index":63,"time_elapsed":592643,"internal_node_id":"0.0-6.0-1.0-2.3-4.3","subject_id":"03"},{"rt":null,"stimulus":"<div class =\"card_deck\">\n              <div class =\"card deg-0\" style=\"background: red\"></div>\n              <div class =\"card deg-72\" style=\"background: red\"></div>\n              <div class =\"card deg-144\" style=\"background: red\"></div>\n              <div class =\"card deg-216\" style=\"background: red\"></div>\n              <div class =\"card deg-288\" style=\"background: black\"></div>\n            </div>\n            <div class=\"fixation\">+</div>\n            <div class=\"eegtrigger\"></div>","response":null,"phase":"test","task":"reveal","eeg_event_id":25,"card":5,"color":"black","sequence_id":22,"outcome":1,"catch_n":0,"participant_choice":"black","card_value":1,"wins_so_far":0,"trial_type":"html-keyboard-response","trial_index":64,"time_elapsed":595657,"internal_node_id":"0.0-6.0-1.0-2.3-5.3","subject_id":"03"},{"rt":null,"stimulus":"<p>You didn't win this round.</p>","response":null,"phase":"test","trial_type":"html-keyboard-response","trial_index":65,"time_elapsed":597673,"internal_node_id":"0.0-6.0-1.0-3.3","subject_id":"03"},{"rt":4021,"stimulus":"\n        <div class=\"choice_container\" style=\"width: 600px; display: flex; justify-content: space-between; align-items: center;\">\n          <div class=\"RED\" style=\"text-align: right;\">RED</div>\n          <div class=\"BLACK\" style=\"text-align: left;\">BLACK</div>\n        </div>\n        <div class=\"fixation\">+</div>\n      ","response":"arrowleft","phase":"test","task":"choice_response","red":"ArrowLeft","trial_type":"html-keyboard-response","trial_index":66,"time_elapsed":601695,"internal_node_id":"0.0-6.0-1.0-0.4","subject_id":"03","color":"red"},{"rt":null,"stimulus":"\n          <div class=\"show_choice_container\">\n            <div class=\"card deg-0\" style=\"background: red;\"></div>\n            <p style=\"margin:0;\">Chosen option: <span class=\"RED\">RED</span></p>\n          </div>\n          <div class=\"fixation\">+</div>\n          ","response":null,"phase":"test","trial_type":"html-keyboard-response","trial_index":67,"time_elapsed":603706,"internal_node_id":"0.0-6.0-1.0-1.4","subject_id":"03"},{"rt":null,"stimulus":"<div class =\"card_deck\">\n              <div class =\"card deg-0\" style=\"background: grey\"></div>\n              <div class =\"card deg-72\" style=\"background: grey\"></div>\n              <div class =\"card deg-144\" style=\"background: grey\"></div>\n              <div class =\"card deg-216\" style=\"background: grey\"></div>\n              <div class =\"card deg-288\" style=\"background: grey\"></div>\n            </div>\n            <div class=\"fixation\">+</div>","response":null,"phase":"test","trial_type":"html-keyboard-response","trial_index":68,"time_elapsed":605722,"internal_node_id":"0.0-6.0-1.0-2.4-0.4","subject_id":"03"},{"rt":null,"stimulus":"<div class =\"card_deck\">\n              <div class =\"card deg-0\" style=\"background: red\"></div>\n              <div class =\"card deg-72\" style=\"background: grey\"></div>\n              <div class =\"card deg-144\" style=\"background: grey\"></div>\n              <div class =\"card deg-216\" style=\"background: grey\"></div>\n              <div class =\"card deg-288\" style=\"background: grey\"></div>\n            </div>\n            <div class=\"fixation\">+</div>\n            <div class=\"eegtrigger\"></div>","response":null,"phase":"test","task":"reveal","eeg_event_id":26,"card":1,"color":"red","sequence_id":3,"outcome":0,"catch_n":0,"participant_choice":"red","card_value":1,"wins_so_far":0,"trial_type":"html-keyboard-response","trial_index":69,"time_elapsed":608725,"internal_node_id":"0.0-6.0-1.0-2.4-1.4","subject_id":"03"},{"rt":null,"stimulus":"<div class =\"card_deck\">\n              <div class =\"card deg-0\" style=\"background: red\"></div>\n              <div class =\"card deg-72\" style=\"background: black\"></div>\n              <div class =\"card deg-144\" style=\"background: grey\"></div>\n              <div class =\"card deg-216\" style=\"background: grey\"></div>\n              <div class =\"card deg-288\" style=\"background: grey\"></div>\n            </div>\n            <div class=\"fixation\">+</div>\n            <div class=\"eegtrigger\"></div>","response":null,"phase":"test","task":"reveal","eeg_event_id":27,"card":2,"color":"black","sequence_id":3,"outcome":0,"catch_n":0,"participant_choice":"red","card_value":0,"wins_so_far":1,"trial_type":"html-keyboard-response","trial_index":70,"time_elapsed":611741,"internal_node_id":"0.0-6.0-1.0-2.4-2.4","subject_id":"03"},{"rt":null,"stimulus":"<div class =\"card_deck\">\n              <div class =\"card deg-0\" style=\"background: red\"></div>\n              <div class =\"card deg-72\" style=\"background: black\"></div>\n              <div class =\"card deg-144\" style=\"background: red\"></div>\n              <div class =\"card deg-216\" style=\"background: grey\"></div>\n              <div class =\"card deg-288\" style=\"background: grey\"></div>\n            </div>\n            <div class=\"fixation\">+</div>\n            <div class=\"eegtrigger\"></div>","response":null,"phase":"test","task":"reveal","eeg_event_id":28,"card":3,"color":"red","sequence_id":3,"outcome":0,"catch_n":0,"participant_choice":"red","card_value":1,"wins_so_far":1,"trial_type":"html-keyboard-response","trial_index":71,"time_elapsed":614757,"internal_node_id":"0.0-6.0-1.0-2.4-3.4","subject_id":"03"},{"rt":null,"stimulus":"<div class =\"card_deck\">\n              <div class =\"card deg-0\" style=\"background: red\"></div>\n              <div class =\"card deg-72\" style=\"background: black\"></div>\n              <div class =\"card deg-144\" style=\"background: red\"></div>\n              <div class =\"card deg-216\" style=\"background: red\"></div>\n              <div class =\"card deg-288\" style=\"background: grey\"></div>\n            </div>\n            <div class=\"fixation\">+</div>\n            <div class=\"eegtrigger\"></div>","response":null,"phase":"test","task":"reveal","eeg_event_id":29,"card":4,"color":"red","sequence_id":3,"outcome":0,"catch_n":0,"participant_choice":"red","card_value":1,"wins_so_far":2,"trial_type":"html-keyboard-response","trial_index":72,"time_elapsed":617774,"internal_node_id":"0.0-6.0-1.0-2.4-4.4","subject_id":"03"},{"rt":null,"stimulus":"<div class =\"card_deck\">\n              <div class =\"card deg-0\" style=\"background: red\"></div>\n              <div class =\"card deg-72\" style=\"background: black\"></div>\n              <div class =\"card deg-144\" style=\"background: red\"></div>\n              <div class =\"card deg-216\" style=\"background: red\"></div>\n              <div class =\"card deg-288\" style=\"background: red\"></div>\n            </div>\n            <div class=\"fixation\">+</div>\n            <div class=\"eegtrigger\"></div>","response":null,"phase":"test","task":"reveal","eeg_event_id":30,"card":5,"color":"red","sequence_id":3,"outcome":0,"catch_n":0,"participant_choice":"red","card_value":1,"wins_so_far":3,"trial_type":"html-keyboard-response","trial_index":73,"time_elapsed":620775,"internal_node_id":"0.0-6.0-1.0-2.4-5.4","subject_id":"03"},{"rt":null,"stimulus":"<p>You won 20 cents!</p>","response":null,"phase":"test","trial_type":"html-keyboard-response","trial_index":74,"time_elapsed":622789,"internal_node_id":"0.0-6.0-1.0-3.4","subject_id":"03"},{"rt":3050,"stimulus":"\n        <div class=\"choice_container\" style=\"width: 600px; display: flex; justify-content: space-between; align-items: center;\">\n          <div class=\"RED\" style=\"text-align: right;\">RED</div>\n          <div class=\"BLACK\" style=\"text-align: left;\">BLACK</div>\n        </div>\n        <div class=\"fixation\">+</div>\n      ","response":"arrowleft","phase":"test","task":"choice_response","red":"ArrowLeft","trial_type":"html-keyboard-response","trial_index":75,"time_elapsed":625838,"internal_node_id":"0.0-6.0-1.0-0.5","subject_id":"03","color":"red"},{"rt":null,"stimulus":"\n          <div class=\"show_choice_container\">\n            <div class=\"card deg-0\" style=\"background: red;\"></div>\n            <p style=\"margin:0;\">Chosen option: <span class=\"RED\">RED</span></p>\n          </div>\n          <div class=\"fixation\">+</div>\n          ","response":null,"phase":"test","trial_type":"html-keyboard-response","trial_index":76,"time_elapsed":627839,"internal_node_id":"0.0-6.0-1.0-1.5","subject_id":"03"},{"rt":null,"stimulus":"<div class =\"card_deck\">\n              <div class =\"card deg-0\" style=\"background: grey\"></div>\n              <div class =\"card deg-72\" style=\"background: grey\"></div>\n              <div class =\"card deg-144\" style=\"background: grey\"></div>\n              <div class =\"card deg-216\" style=\"background: grey\"></div>\n              <div class =\"card deg-288\" style=\"background: grey\"></div>\n            </div>\n            <div class=\"fixation\">+</div>","response":null,"phase":"test","trial_type":"html-keyboard-response","trial_index":77,"time_elapsed":629855,"internal_node_id":"0.0-6.0-1.0-2.5-0.5","subject_id":"03"},{"rt":null,"stimulus":"<div class =\"card_deck\">\n              <div class =\"card deg-0\" style=\"background: red\"></div>\n              <div class =\"card deg-72\" style=\"background: grey\"></div>\n              <div class =\"card deg-144\" style=\"background: grey\"></div>\n              <div class =\"card deg-216\" style=\"background: grey\"></div>\n              <div class =\"card deg-288\" style=\"background: grey\"></div>\n            </div>\n            <div class=\"fixation\">+</div>\n            <div class=\"eegtrigger\"></div>","response":null,"phase":"test","task":"reveal","eeg_event_id":31,"card":1,"color":"red","sequence_id":3,"outcome":0,"catch_n":0,"participant_choice":"red","card_value":1,"wins_so_far":0,"trial_type":"html-keyboard-response","trial_index":78,"time_elapsed":632872,"internal_node_id":"0.0-6.0-1.0-2.5-1.5","subject_id":"03"},{"rt":null,"stimulus":"<div class =\"card_deck\">\n              <div class =\"card deg-0\" style=\"background: red\"></div>\n              <div class =\"card deg-72\" style=\"background: black\"></div>\n              <div class =\"card deg-144\" style=\"background: grey\"></div>\n              <div class =\"card deg-216\" style=\"background: grey\"></div>\n              <div class =\"card deg-288\" style=\"background: grey\"></div>\n            </div>\n            <div class=\"fixation\">+</div>\n            <div class=\"eegtrigger\"></div>","response":null,"phase":"test","task":"reveal","eeg_event_id":32,"card":2,"color":"black","sequence_id":3,"outcome":0,"catch_n":0,"participant_choice":"red","card_value":0,"wins_so_far":1,"trial_type":"html-keyboard-response","trial_index":79,"time_elapsed":635874,"internal_node_id":"0.0-6.0-1.0-2.5-2.5","subject_id":"03"},{"rt":null,"stimulus":"<div class =\"card_deck\">\n              <div class =\"card deg-0\" style=\"background: red\"></div>\n              <div class =\"card deg-72\" style=\"background: black\"></div>\n              <div class =\"card deg-144\" style=\"background: red\"></div>\n              <div class =\"card deg-216\" style=\"background: grey\"></div>\n              <div class =\"card deg-288\" style=\"background: grey\"></div>\n            </div>\n            <div class=\"fixation\">+</div>\n            <div class=\"eegtrigger\"></div>","response":null,"phase":"test","task":"reveal","eeg_event_id":33,"card":3,"color":"red","sequence_id":3,"outcome":0,"catch_n":0,"participant_choice":"red","card_value":1,"wins_so_far":1,"trial_type":"html-keyboard-response","trial_index":80,"time_elapsed":638889,"internal_node_id":"0.0-6.0-1.0-2.5-3.5","subject_id":"03"},{"rt":null,"stimulus":"<div class =\"card_deck\">\n              <div class =\"card deg-0\" style=\"background: red\"></div>\n              <div class =\"card deg-72\" style=\"background: black\"></div>\n              <div class =\"card deg-144\" style=\"background: red\"></div>\n              <div class =\"card deg-216\" style=\"background: red\"></div>\n              <div class =\"card deg-288\" style=\"background: grey\"></div>\n            </div>\n            <div class=\"fixation\">+</div>\n            <div class=\"eegtrigger\"></div>","response":null,"phase":"test","task":"reveal","eeg_event_id":34,"card":4,"color":"red","sequence_id":3,"outcome":0,"catch_n":0,"participant_choice":"red","card_value":1,"wins_so_far":2,"trial_type":"html-keyboard-response","trial_index":81,"time_elapsed":641890,"internal_node_id":"0.0-6.0-1.0-2.5-4.5","subject_id":"03"},{"rt":null,"stimulus":"<div class =\"card_deck\">\n              <div class =\"card deg-0\" style=\"background: red\"></div>\n              <div class =\"card deg-72\" style=\"background: black\"></div>\n              <div class =\"card deg-144\" style=\"background: red\"></div>\n              <div class =\"card deg-216\" style=\"background: red\"></div>\n              <div class =\"card deg-288\" style=\"background: red\"></div>\n            </div>\n            <div class=\"fixation\">+</div>\n            <div class=\"eegtrigger\"></div>","response":null,"phase":"test","task":"reveal","eeg_event_id":35,"card":5,"color":"red","sequence_id":3,"outcome":0,"catch_n":0,"participant_choice":"red","card_value":1,"wins_so_far":3,"trial_type":"html-keyboard-response","trial_index":82,"time_elapsed":644906,"internal_node_id":"0.0-6.0-1.0-2.5-5.5","subject_id":"03"},{"rt":null,"stimulus":"<p>You won 20 cents!</p>","response":null,"phase":"test","trial_type":"html-keyboard-response","trial_index":83,"time_elapsed":646921,"internal_node_id":"0.0-6.0-1.0-3.5","subject_id":"03"},{"rt":3349,"stimulus":"\n        <div class=\"choice_container\" style=\"width: 600px; display: flex; justify-content: space-between; align-items: center;\">\n          <div class=\"RED\" style=\"text-align: right;\">RED</div>\n          <div class=\"BLACK\" style=\"text-align: left;\">BLACK</div>\n        </div>\n        <div class=\"fixation\">+</div>\n      ","response":"arrowright","phase":"test","task":"choice_response","red":"ArrowLeft","trial_type":"html-keyboard-response","trial_index":84,"time_elapsed":650270,"internal_node_id":"0.0-6.0-1.0-0.6","subject_id":"03","color":"black"},{"rt":null,"stimulus":"\n          <div class=\"show_choice_container\">\n            <div class=\"card deg-0\" style=\"background: black;\"></div>\n            <p style=\"margin:0;\">Chosen option: <span class=\"BLACK\">BLACK</span></p>\n          </div>\n          <div class=\"fixation\">+</div>\n          ","response":null,"phase":"test","trial_type":"html-keyboard-response","trial_index":85,"time_elapsed":652273,"internal_node_id":"0.0-6.0-1.0-1.6","subject_id":"03"},{"rt":null,"stimulus":"<div class =\"card_deck\">\n              <div class =\"card deg-0\" style=\"background: grey\"></div>\n              <div class =\"card deg-72\" style=\"background: grey\"></div>\n              <div class =\"card deg-144\" style=\"background: grey\"></div>\n              <div class =\"card deg-216\" style=\"background: grey\"></div>\n              <div class =\"card deg-288\" style=\"background: grey\"></div>\n            </div>\n            <div class=\"fixation\">+</div>","response":null,"phase":"test","trial_type":"html-keyboard-response","trial_index":86,"time_elapsed":654288,"internal_node_id":"0.0-6.0-1.0-2.6-0.6","subject_id":"03"},{"rt":null,"stimulus":"<div class =\"card_deck\">\n              <div class =\"card deg-0\" style=\"background: red\"></div>\n              <div class =\"card deg-72\" style=\"background: grey\"></div>\n              <div class =\"card deg-144\" style=\"background: grey\"></div>\n              <div class =\"card deg-216\" style=\"background: grey\"></div>\n              <div class =\"card deg-288\" style=\"background: grey\"></div>\n            </div>\n            <div class=\"fixation\">+</div>\n            <div class=\"eegtrigger\"></div>","response":null,"phase":"test","task":"reveal","eeg_event_id":36,"card":1,"color":"red","sequence_id":17,"outcome":1,"catch_n":0,"participant_choice":"black","card_value":0,"wins_so_far":0,"trial_type":"html-keyboard-response","trial_index":87,"time_elapsed":657295,"internal_node_id":"0.0-6.0-1.0-2.6-1.6","subject_id":"03"},{"rt":null,"stimulus":"<div class =\"card_deck\">\n              <div class =\"card deg-0\" style=\"background: red\"></div>\n              <div class =\"card deg-72\" style=\"background: red\"></div>\n              <div class =\"card deg-144\" style=\"background: grey\"></div>\n              <div class =\"card deg-216\" style=\"background: grey\"></div>\n              <div class =\"card deg-288\" style=\"background: grey\"></div>\n            </div>\n            <div class=\"fixation\">+</div>\n            <div class=\"eegtrigger\"></div>","response":null,"phase":"test","task":"reveal","eeg_event_id":37,"card":2,"color":"red","sequence_id":17,"outcome":1,"catch_n":0,"participant_choice":"black","card_value":0,"wins_so_far":0,"trial_type":"html-keyboard-response","trial_index":88,"time_elapsed":660306,"internal_node_id":"0.0-6.0-1.0-2.6-2.6","subject_id":"03"},{"rt":null,"stimulus":"<div class =\"card_deck\">\n              <div class =\"card deg-0\" style=\"background: red\"></div>\n              <div class =\"card deg-72\" style=\"background: red\"></div>\n              <div class =\"card deg-144\" style=\"background: red\"></div>\n              <div class =\"card deg-216\" style=\"background: grey\"></div>\n              <div class =\"card deg-288\" style=\"background: grey\"></div>\n            </div>\n            <div class=\"fixation\">+</div>\n            <div class=\"eegtrigger\"></div>","response":null,"phase":"test","task":"reveal","eeg_event_id":38,"card":3,"color":"red","sequence_id":17,"outcome":1,"catch_n":0,"participant_choice":"black","card_value":0,"wins_so_far":0,"trial_type":"html-keyboard-response","trial_index":89,"time_elapsed":663307,"internal_node_id":"0.0-6.0-1.0-2.6-3.6","subject_id":"03"},{"rt":null,"stimulus":"<div class =\"card_deck\">\n              <div class =\"card deg-0\" style=\"background: red\"></div>\n              <div class =\"card deg-72\" style=\"background: red\"></div>\n              <div class =\"card deg-144\" style=\"background: red\"></div>\n              <div class =\"card deg-216\" style=\"background: red\"></div>\n              <div class =\"card deg-288\" style=\"background: grey\"></div>\n            </div>\n            <div class=\"fixation\">+</div>\n            <div class=\"eegtrigger\"></div>","response":null,"phase":"test","task":"reveal","eeg_event_id":39,"card":4,"color":"red","sequence_id":17,"outcome":1,"catch_n":0,"participant_choice":"black","card_value":0,"wins_so_far":0,"trial_type":"html-keyboard-response","trial_index":90,"time_elapsed":666323,"internal_node_id":"0.0-6.0-1.0-2.6-4.6","subject_id":"03"},{"rt":null,"stimulus":"<div class =\"card_deck\">\n              <div class =\"card deg-0\" style=\"background: red\"></div>\n              <div class =\"card deg-72\" style=\"background: red\"></div>\n              <div class =\"card deg-144\" style=\"background: red\"></div>\n              <div class =\"card deg-216\" style=\"background: red\"></div>\n              <div class =\"card deg-288\" style=\"background: red\"></div>\n            </div>\n            <div class=\"fixation\">+</div>\n            <div class=\"eegtrigger\"></div>","response":null,"phase":"test","task":"reveal","eeg_event_id":40,"card":5,"color":"red","sequence_id":17,"outcome":1,"catch_n":0,"participant_choice":"black","card_value":0,"wins_so_far":0,"trial_type":"html-keyboard-response","trial_index":91,"time_elapsed":669339,"internal_node_id":"0.0-6.0-1.0-2.6-5.6","subject_id":"03"},{"rt":null,"stimulus":"<p>You didn't win this round.</p>","response":null,"phase":"test","trial_type":"html-keyboard-response","trial_index":92,"time_elapsed":671354,"internal_node_id":"0.0-6.0-1.0-3.6","subject_id":"03"},{"rt":5268,"stimulus":"\n        <div class=\"choice_container\" style=\"width: 600px; display: flex; justify-content: space-between; align-items: center;\">\n          <div class=\"RED\" style=\"text-align: right;\">RED</div>\n          <div class=\"BLACK\" style=\"text-align: left;\">BLACK</div>\n        </div>\n        <div class=\"fixation\">+</div>\n      ","response":"arrowright","phase":"test","task":"choice_response","red":"ArrowLeft","trial_type":"html-keyboard-response","trial_index":93,"time_elapsed":676622,"internal_node_id":"0.0-6.0-1.0-0.7","subject_id":"03","color":"black"},{"rt":null,"stimulus":"\n          <div class=\"show_choice_container\">\n            <div class=\"card deg-0\" style=\"background: black;\"></div>\n            <p style=\"margin:0;\">Chosen option: <span class=\"BLACK\">BLACK</span></p>\n          </div>\n          <div class=\"fixation\">+</div>\n          ","response":null,"phase":"test","trial_type":"html-keyboard-response","trial_index":94,"time_elapsed":678637,"internal_node_id":"0.0-6.0-1.0-1.7","subject_id":"03"},{"rt":null,"stimulus":"<div class =\"card_deck\">\n              <div class =\"card deg-0\" style=\"background: grey\"></div>\n              <div class =\"card deg-72\" style=\"background: grey\"></div>\n              <div class =\"card deg-144\" style=\"background: grey\"></div>\n              <div class =\"card deg-216\" style=\"background: grey\"></div>\n              <div class =\"card deg-288\" style=\"background: grey\"></div>\n            </div>\n            <div class=\"fixation\">+</div>","response":null,"phase":"test","trial_type":"html-keyboard-response","trial_index":95,"time_elapsed":680639,"internal_node_id":"0.0-6.0-1.0-2.7-0.7","subject_id":"03"},{"rt":null,"stimulus":"<div class =\"card_deck\">\n              <div class =\"card deg-0\" style=\"background: black\"></div>\n              <div class =\"card deg-72\" style=\"background: grey\"></div>\n              <div class =\"card deg-144\" style=\"background: grey\"></div>\n              <div class =\"card deg-216\" style=\"background: grey\"></div>\n              <div class =\"card deg-288\" style=\"background: grey\"></div>\n            </div>\n            <div class=\"fixation\">+</div>\n            <div class=\"eegtrigger\"></div>","response":null,"phase":"test","task":"reveal","eeg_event_id":41,"card":1,"color":"black","sequence_id":14,"outcome":0,"catch_n":0,"participant_choice":"black","card_value":1,"wins_so_far":0,"trial_type":"html-keyboard-response","trial_index":96,"time_elapsed":683656,"internal_node_id":"0.0-6.0-1.0-2.7-1.7","subject_id":"03"},{"rt":null,"stimulus":"<div class =\"card_deck\">\n              <div class =\"card deg-0\" style=\"background: black\"></div>\n              <div class =\"card deg-72\" style=\"background: black\"></div>\n              <div class =\"card deg-144\" style=\"background: grey\"></div>\n              <div class =\"card deg-216\" style=\"background: grey\"></div>\n              <div class =\"card deg-288\" style=\"background: grey\"></div>\n            </div>\n            <div class=\"fixation\">+</div>\n            <div class=\"eegtrigger\"></div>","response":null,"phase":"test","task":"reveal","eeg_event_id":42,"card":2,"color":"black","sequence_id":14,"outcome":0,"catch_n":0,"participant_choice":"black","card_value":1,"wins_so_far":1,"trial_type":"html-keyboard-response","trial_index":97,"time_elapsed":686674,"internal_node_id":"0.0-6.0-1.0-2.7-2.7","subject_id":"03"},{"rt":null,"stimulus":"<div class =\"card_deck\">\n              <div class =\"card deg-0\" style=\"background: black\"></div>\n              <div class =\"card deg-72\" style=\"background: black\"></div>\n              <div class =\"card deg-144\" style=\"background: red\"></div>\n              <div class =\"card deg-216\" style=\"background: grey\"></div>\n              <div class =\"card deg-288\" style=\"background: grey\"></div>\n            </div>\n            <div class=\"fixation\">+</div>\n            <div class=\"eegtrigger\"></div>","response":null,"phase":"test","task":"reveal","eeg_event_id":43,"card":3,"color":"red","sequence_id":14,"outcome":0,"catch_n":0,"participant_choice":"black","card_value":0,"wins_so_far":2,"trial_type":"html-keyboard-response","trial_index":98,"time_elapsed":689675,"internal_node_id":"0.0-6.0-1.0-2.7-3.7","subject_id":"03"},{"rt":null,"stimulus":"<div class =\"card_deck\">\n              <div class =\"card deg-0\" style=\"background: black\"></div>\n              <div class =\"card deg-72\" style=\"background: black\"></div>\n              <div class =\"card deg-144\" style=\"background: red\"></div>\n              <div class =\"card deg-216\" style=\"background: red\"></div>\n              <div class =\"card deg-288\" style=\"background: grey\"></div>\n            </div>\n            <div class=\"fixation\">+</div>\n            <div class=\"eegtrigger\"></div>","response":null,"phase":"test","task":"reveal","eeg_event_id":44,"card":4,"color":"red","sequence_id":14,"outcome":0,"catch_n":0,"participant_choice":"black","card_value":0,"wins_so_far":2,"trial_type":"html-keyboard-response","trial_index":99,"time_elapsed":692691,"internal_node_id":"0.0-6.0-1.0-2.7-4.7","subject_id":"03"},{"rt":null,"stimulus":"<div class =\"card_deck\">\n              <div class =\"card deg-0\" style=\"background: black\"></div>\n              <div class =\"card deg-72\" style=\"background: black\"></div>\n              <div class =\"card deg-144\" style=\"background: red\"></div>\n              <div class =\"card deg-216\" style=\"background: red\"></div>\n              <div class =\"card deg-288\" style=\"background: black\"></div>\n            </div>\n            <div class=\"fixation\">+</div>\n            <div class=\"eegtrigger\"></div>","response":null,"phase":"test","task":"reveal","eeg_event_id":45,"card":5,"color":"black","sequence_id":14,"outcome":0,"catch_n":0,"participant_choice":"black","card_value":1,"wins_so_far":2,"trial_type":"html-keyboard-response","trial_index":100,"time_elapsed":695707,"internal_node_id":"0.0-6.0-1.0-2.7-5.7","subject_id":"03"},{"rt":null,"stimulus":"<p>You won 20 cents!</p>","response":null,"phase":"test","trial_type":"html-keyboard-response","trial_index":101,"time_elapsed":697723,"internal_node_id":"0.0-6.0-1.0-3.7","subject_id":"03"},{"rt":1509,"stimulus":"\n        <div class=\"choice_container\" style=\"width: 600px; display: flex; justify-content: space-between; align-items: center;\">\n          <div class=\"RED\" style=\"text-align: right;\">RED</div>\n          <div class=\"BLACK\" style=\"text-align: left;\">BLACK</div>\n        </div>\n        <div class=\"fixation\">+</div>\n      ","response":"arrowleft","phase":"test","task":"choice_response","red":"ArrowLeft","trial_type":"html-keyboard-response","trial_index":102,"time_elapsed":699232,"internal_node_id":"0.0-6.0-1.0-0.8","subject_id":"03","color":"red"},{"rt":null,"stimulus":"\n          <div class=\"show_choice_container\">\n            <div class=\"card deg-0\" style=\"background: red;\"></div>\n            <p style=\"margin:0;\">Chosen option: <span class=\"RED\">RED</span></p>\n          </div>\n          <div class=\"fixation\">+</div>\n          ","response":null,"phase":"test","trial_type":"html-keyboard-response","trial_index":103,"time_elapsed":701239,"internal_node_id":"0.0-6.0-1.0-1.8","subject_id":"03"},{"rt":null,"stimulus":"<div class =\"card_deck\">\n              <div class =\"card deg-0\" style=\"background: grey\"></div>\n              <div class =\"card deg-72\" style=\"background: grey\"></div>\n              <div class =\"card deg-144\" style=\"background: grey\"></div>\n              <div class =\"card deg-216\" style=\"background: grey\"></div>\n              <div class =\"card deg-288\" style=\"background: grey\"></div>\n            </div>\n            <div class=\"fixation\">+</div>","response":null,"phase":"test","trial_type":"html-keyboard-response","trial_index":104,"time_elapsed":703241,"internal_node_id":"0.0-6.0-1.0-2.8-0.8","subject_id":"03"},{"rt":null,"stimulus":"<div class =\"card_deck\">\n              <div class =\"card deg-0\" style=\"background: black\"></div>\n              <div class =\"card deg-72\" style=\"background: grey\"></div>\n              <div class =\"card deg-144\" style=\"background: grey\"></div>\n              <div class =\"card deg-216\" style=\"background: grey\"></div>\n              <div class =\"card deg-288\" style=\"background: grey\"></div>\n            </div>\n            <div class=\"fixation\">+</div>\n            <div class=\"eegtrigger\"></div>","response":null,"phase":"test","task":"reveal","eeg_event_id":46,"card":1,"color":"black","sequence_id":32,"outcome":1,"catch_n":0,"participant_choice":"red","card_value":0,"wins_so_far":0,"trial_type":"html-keyboard-response","trial_index":105,"time_elapsed":706258,"internal_node_id":"0.0-6.0-1.0-2.8-1.8","subject_id":"03"},{"rt":null,"stimulus":"<div class =\"card_deck\">\n              <div class =\"card deg-0\" style=\"background: black\"></div>\n              <div class =\"card deg-72\" style=\"background: black\"></div>\n              <div class =\"card deg-144\" style=\"background: grey\"></div>\n              <div class =\"card deg-216\" style=\"background: grey\"></div>\n              <div class =\"card deg-288\" style=\"background: grey\"></div>\n            </div>\n            <div class=\"fixation\">+</div>\n            <div class=\"eegtrigger\"></div>","response":null,"phase":"test","task":"reveal","eeg_event_id":47,"card":2,"color":"black","sequence_id":32,"outcome":1,"catch_n":0,"participant_choice":"red","card_value":0,"wins_so_far":0,"trial_type":"html-keyboard-response","trial_index":106,"time_elapsed":709274,"internal_node_id":"0.0-6.0-1.0-2.8-2.8","subject_id":"03"},{"rt":null,"stimulus":"<div class =\"card_deck\">\n              <div class =\"card deg-0\" style=\"background: black\"></div>\n              <div class =\"card deg-72\" style=\"background: black\"></div>\n              <div class =\"card deg-144\" style=\"background: black\"></div>\n              <div class =\"card deg-216\" style=\"background: grey\"></div>\n              <div class =\"card deg-288\" style=\"background: grey\"></div>\n            </div>\n            <div class=\"fixation\">+</div>\n            <div class=\"eegtrigger\"></div>","response":null,"phase":"test","task":"reveal","eeg_event_id":48,"card":3,"color":"black","sequence_id":32,"outcome":1,"catch_n":0,"participant_choice":"red","card_value":0,"wins_so_far":0,"trial_type":"html-keyboard-response","trial_index":107,"time_elapsed":712291,"internal_node_id":"0.0-6.0-1.0-2.8-3.8","subject_id":"03"},{"rt":null,"stimulus":"<div class =\"card_deck\">\n              <div class =\"card deg-0\" style=\"background: black\"></div>\n              <div class =\"card deg-72\" style=\"background: black\"></div>\n              <div class =\"card deg-144\" style=\"background: black\"></div>\n              <div class =\"card deg-216\" style=\"background: red\"></div>\n              <div class =\"card deg-288\" style=\"background: grey\"></div>\n            </div>\n            <div class=\"fixation\">+</div>\n            <div class=\"eegtrigger\"></div>","response":null,"phase":"test","task":"reveal","eeg_event_id":49,"card":4,"color":"red","sequence_id":32,"outcome":1,"catch_n":0,"participant_choice":"red","card_value":1,"wins_so_far":0,"trial_type":"html-keyboard-response","trial_index":108,"time_elapsed":715293,"internal_node_id":"0.0-6.0-1.0-2.8-4.8","subject_id":"03"},{"rt":null,"stimulus":"<div class =\"card_deck\">\n              <div class =\"card deg-0\" style=\"background: black\"></div>\n              <div class =\"card deg-72\" style=\"background: black\"></div>\n              <div class =\"card deg-144\" style=\"background: black\"></div>\n              <div class =\"card deg-216\" style=\"background: red\"></div>\n              <div class =\"card deg-288\" style=\"background: red\"></div>\n            </div>\n            <div class=\"fixation\">+</div>\n            <div class=\"eegtrigger\"></div>","response":null,"phase":"test","task":"reveal","eeg_event_id":50,"card":5,"color":"red","sequence_id":32,"outcome":1,"catch_n":0,"participant_choice":"red","card_value":1,"wins_so_far":1,"trial_type":"html-keyboard-response","trial_index":109,"time_elapsed":718308,"internal_node_id":"0.0-6.0-1.0-2.8-5.8","subject_id":"03"},{"rt":null,"stimulus":"<p>You didn't win this round.</p>","response":null,"phase":"test","trial_type":"html-keyboard-response","trial_index":110,"time_elapsed":720322,"internal_node_id":"0.0-6.0-1.0-3.8","subject_id":"03"},{"rt":1566,"stimulus":"\n        <div class=\"choice_container\" style=\"width: 600px; display: flex; justify-content: space-between; align-items: center;\">\n          <div class=\"RED\" style=\"text-align: right;\">RED</div>\n          <div class=\"BLACK\" style=\"text-align: left;\">BLACK</div>\n        </div>\n        <div class=\"fixation\">+</div>\n      ","response":"arrowleft","phase":"test","task":"choice_response","red":"ArrowLeft","trial_type":"html-keyboard-response","trial_index":111,"time_elapsed":721888,"internal_node_id":"0.0-6.0-1.0-0.9","subject_id":"03","color":"red"},{"rt":null,"stimulus":"\n          <div class=\"show_choice_container\">\n            <div class=\"card deg-0\" style=\"background: red;\"></div>\n            <p style=\"margin:0;\">Chosen option: <span class=\"RED\">RED</span></p>\n          </div>\n          <div class=\"fixation\">+</div>\n          ","response":null,"phase":"test","trial_type":"html-keyboard-response","trial_index":112,"time_elapsed":723891,"internal_node_id":"0.0-6.0-1.0-1.9","subject_id":"03"},{"rt":null,"stimulus":"<div class =\"card_deck\">\n              <div class =\"card deg-0\" style=\"background: grey\"></div>\n              <div class =\"card deg-72\" style=\"background: grey\"></div>\n              <div class =\"card deg-144\" style=\"background: grey\"></div>\n              <div class =\"card deg-216\" style=\"background: grey\"></div>\n              <div class =\"card deg-288\" style=\"background: grey\"></div>\n            </div>\n            <div class=\"fixation\">+</div>","response":null,"phase":"test","trial_type":"html-keyboard-response","trial_index":113,"time_elapsed":725905,"internal_node_id":"0.0-6.0-1.0-2.9-0.9","subject_id":"03"},{"rt":null,"stimulus":"<div class =\"card_deck\">\n              <div class =\"card deg-0\" style=\"background: black\"></div>\n              <div class =\"card deg-72\" style=\"background: grey\"></div>\n              <div class =\"card deg-144\" style=\"background: grey\"></div>\n              <div class =\"card deg-216\" style=\"background: grey\"></div>\n              <div class =\"card deg-288\" style=\"background: grey\"></div>\n            </div>\n            <div class=\"fixation\">+</div>\n            <div class=\"eegtrigger\"></div>","response":null,"phase":"test","task":"reveal","eeg_event_id":51,"card":1,"color":"black","sequence_id":22,"outcome":1,"catch_n":0,"participant_choice":"red","card_value":0,"wins_so_far":0,"trial_type":"html-keyboard-response","trial_index":114,"time_elapsed":728908,"internal_node_id":"0.0-6.0-1.0-2.9-1.9","subject_id":"03"},{"rt":null,"stimulus":"<div class =\"card_deck\">\n              <div class =\"card deg-0\" style=\"background: black\"></div>\n              <div class =\"card deg-72\" style=\"background: black\"></div>\n              <div class =\"card deg-144\" style=\"background: grey\"></div>\n              <div class =\"card deg-216\" style=\"background: grey\"></div>\n              <div class =\"card deg-288\" style=\"background: grey\"></div>\n            </div>\n            <div class=\"fixation\">+</div>\n            <div class=\"eegtrigger\"></div>","response":null,"phase":"test","task":"reveal","eeg_event_id":52,"card":2,"color":"black","sequence_id":22,"outcome":1,"catch_n":0,"participant_choice":"red","card_value":0,"wins_so_far":0,"trial_type":"html-keyboard-response","trial_index":115,"time_elapsed":731923,"internal_node_id":"0.0-6.0-1.0-2.9-2.9","subject_id":"03"},{"rt":null,"stimulus":"<div class =\"card_deck\">\n              <div class =\"card deg-0\" style=\"background: black\"></div>\n              <div class =\"card deg-72\" style=\"background: black\"></div>\n              <div class =\"card deg-144\" style=\"background: black\"></div>\n              <div class =\"card deg-216\" style=\"background: grey\"></div>\n              <div class =\"card deg-288\" style=\"background: grey\"></div>\n            </div>\n            <div class=\"fixation\">+</div>\n            <div class=\"eegtrigger\"></div>","response":null,"phase":"test","task":"reveal","eeg_event_id":53,"card":3,"color":"black","sequence_id":22,"outcome":1,"catch_n":0,"participant_choice":"red","card_value":0,"wins_so_far":0,"trial_type":"html-keyboard-response","trial_index":116,"time_elapsed":734939,"internal_node_id":"0.0-6.0-1.0-2.9-3.9","subject_id":"03"},{"rt":null,"stimulus":"<div class =\"card_deck\">\n              <div class =\"card deg-0\" style=\"background: black\"></div>\n              <div class =\"card deg-72\" style=\"background: black\"></div>\n              <div class =\"card deg-144\" style=\"background: black\"></div>\n              <div class =\"card deg-216\" style=\"background: black\"></div>\n              <div class =\"card deg-288\" style=\"background: grey\"></div>\n            </div>\n            <div class=\"fixation\">+</div>\n            <div class=\"eegtrigger\"></div>","response":null,"phase":"test","task":"reveal","eeg_event_id":54,"card":4,"color":"black","sequence_id":22,"outcome":1,"catch_n":0,"participant_choice":"red","card_value":0,"wins_so_far":0,"trial_type":"html-keyboard-response","trial_index":117,"time_elapsed":737955,"internal_node_id":"0.0-6.0-1.0-2.9-4.9","subject_id":"03"},{"rt":null,"stimulus":"<div class =\"card_deck\">\n              <div class =\"card deg-0\" style=\"background: black\"></div>\n              <div class =\"card deg-72\" style=\"background: black\"></div>\n              <div class =\"card deg-144\" style=\"background: black\"></div>\n              <div class =\"card deg-216\" style=\"background: black\"></div>\n              <div class =\"card deg-288\" style=\"background: red\"></div>\n            </div>\n            <div class=\"fixation\">+</div>\n            <div class=\"eegtrigger\"></div>","response":null,"phase":"test","task":"reveal","eeg_event_id":55,"card":5,"color":"red","sequence_id":22,"outcome":1,"catch_n":0,"participant_choice":"red","card_value":1,"wins_so_far":0,"trial_type":"html-keyboard-response","trial_index":118,"time_elapsed":740957,"internal_node_id":"0.0-6.0-1.0-2.9-5.9","subject_id":"03"},{"rt":null,"stimulus":"<p>You didn't win this round.</p>","response":null,"phase":"test","trial_type":"html-keyboard-response","trial_index":119,"time_elapsed":742973,"internal_node_id":"0.0-6.0-1.0-3.9","subject_id":"03"},{"rt":1108,"stimulus":"\n        <div class=\"choice_container\" style=\"width: 600px; display: flex; justify-content: space-between; align-items: center;\">\n          <div class=\"RED\" style=\"text-align: right;\">RED</div>\n          <div class=\"BLACK\" style=\"text-align: left;\">BLACK</div>\n        </div>\n        <div class=\"fixation\">+</div>\n      ","response":"arrowleft","phase":"test","task":"choice_response","red":"ArrowLeft","trial_type":"html-keyboard-response","trial_index":120,"time_elapsed":744081,"internal_node_id":"0.0-6.0-1.0-0.10","subject_id":"03","color":"red"},{"rt":null,"stimulus":"\n          <div class=\"show_choice_container\">\n            <div class=\"card deg-0\" style=\"background: red;\"></div>\n            <p style=\"margin:0;\">Chosen option: <span class=\"RED\">RED</span></p>\n          </div>\n          <div class=\"fixation\">+</div>\n          ","response":null,"phase":"test","trial_type":"html-keyboard-response","trial_index":121,"time_elapsed":746088,"internal_node_id":"0.0-6.0-1.0-1.10","subject_id":"03"},{"rt":null,"stimulus":"<div class =\"card_deck\">\n              <div class =\"card deg-0\" style=\"background: grey\"></div>\n              <div class =\"card deg-72\" style=\"background: grey\"></div>\n              <div class =\"card deg-144\" style=\"background: grey\"></div>\n              <div class =\"card deg-216\" style=\"background: grey\"></div>\n              <div class =\"card deg-288\" style=\"background: grey\"></div>\n            </div>\n            <div class=\"fixation\">+</div>","response":null,"phase":"test","trial_type":"html-keyboard-response","trial_index":122,"time_elapsed":748090,"internal_node_id":"0.0-6.0-1.0-2.10-0.10","subject_id":"03"},{"rt":null,"stimulus":"<div class =\"card_deck\">\n              <div class =\"card deg-0\" style=\"background: red\"></div>\n              <div class =\"card deg-72\" style=\"background: grey\"></div>\n              <div class =\"card deg-144\" style=\"background: grey\"></div>\n              <div class =\"card deg-216\" style=\"background: grey\"></div>\n              <div class =\"card deg-288\" style=\"background: grey\"></div>\n            </div>\n            <div class=\"fixation\">+</div>\n            <div class=\"eegtrigger\"></div>","response":null,"phase":"test","task":"reveal","eeg_event_id":56,"card":1,"color":"red","sequence_id":13,"outcome":0,"catch_n":0,"participant_choice":"red","card_value":1,"wins_so_far":0,"trial_type":"html-keyboard-response","trial_index":123,"time_elapsed":751107,"internal_node_id":"0.0-6.0-1.0-2.10-1.10","subject_id":"03"},{"rt":null,"stimulus":"<div class =\"card_deck\">\n              <div class =\"card deg-0\" style=\"background: red\"></div>\n              <div class =\"card deg-72\" style=\"background: black\"></div>\n              <div class =\"card deg-144\" style=\"background: grey\"></div>\n              <div class =\"card deg-216\" style=\"background: grey\"></div>\n              <div class =\"card deg-288\" style=\"background: grey\"></div>\n            </div>\n            <div class=\"fixation\">+</div>\n            <div class=\"eegtrigger\"></div>","response":null,"phase":"test","task":"reveal","eeg_event_id":57,"card":2,"color":"black","sequence_id":13,"outcome":0,"catch_n":0,"participant_choice":"red","card_value":0,"wins_so_far":1,"trial_type":"html-keyboard-response","trial_index":124,"time_elapsed":754123,"internal_node_id":"0.0-6.0-1.0-2.10-2.10","subject_id":"03"},{"rt":null,"stimulus":"<div class =\"card_deck\">\n              <div class =\"card deg-0\" style=\"background: red\"></div>\n              <div class =\"card deg-72\" style=\"background: black\"></div>\n              <div class =\"card deg-144\" style=\"background: red\"></div>\n              <div class =\"card deg-216\" style=\"background: grey\"></div>\n              <div class =\"card deg-288\" style=\"background: grey\"></div>\n            </div>\n            <div class=\"fixation\">+</div>\n            <div class=\"eegtrigger\"></div>","response":null,"phase":"test","task":"reveal","eeg_event_id":58,"card":3,"color":"red","sequence_id":13,"outcome":0,"catch_n":0,"participant_choice":"red","card_value":1,"wins_so_far":1,"trial_type":"html-keyboard-response","trial_index":125,"time_elapsed":757139,"internal_node_id":"0.0-6.0-1.0-2.10-3.10","subject_id":"03"},{"rt":null,"stimulus":"<div class =\"card_deck\">\n              <div class =\"card deg-0\" style=\"background: red\"></div>\n              <div class =\"card deg-72\" style=\"background: black\"></div>\n              <div class =\"card deg-144\" style=\"background: red\"></div>\n              <div class =\"card deg-216\" style=\"background: red\"></div>\n              <div class =\"card deg-288\" style=\"background: grey\"></div>\n            </div>\n            <div class=\"fixation\">+</div>\n            <div class=\"eegtrigger\"></div>","response":null,"phase":"test","task":"reveal","eeg_event_id":59,"card":4,"color":"red","sequence_id":13,"outcome":0,"catch_n":0,"participant_choice":"red","card_value":1,"wins_so_far":2,"trial_type":"html-keyboard-response","trial_index":126,"time_elapsed":760140,"internal_node_id":"0.0-6.0-1.0-2.10-4.10","subject_id":"03"},{"rt":null,"stimulus":"<div class =\"card_deck\">\n              <div class =\"card deg-0\" style=\"background: red\"></div>\n              <div class =\"card deg-72\" style=\"background: black\"></div>\n              <div class =\"card deg-144\" style=\"background: red\"></div>\n              <div class =\"card deg-216\" style=\"background: red\"></div>\n              <div class =\"card deg-288\" style=\"background: black\"></div>\n            </div>\n            <div class=\"fixation\">+</div>\n            <div class=\"eegtrigger\"></div>","response":null,"phase":"test","task":"reveal","eeg_event_id":60,"card":5,"color":"black","sequence_id":13,"outcome":0,"catch_n":0,"participant_choice":"red","card_value":0,"wins_so_far":3,"trial_type":"html-keyboard-response","trial_index":127,"time_elapsed":763142,"internal_node_id":"0.0-6.0-1.0-2.10-5.10","subject_id":"03"},{"rt":null,"stimulus":"<p>You won 20 cents!</p>","response":null,"phase":"test","trial_type":"html-keyboard-response","trial_index":128,"time_elapsed":765156,"internal_node_id":"0.0-6.0-1.0-3.10","subject_id":"03"},{"rt":1852,"stimulus":"\n        <div class=\"choice_container\" style=\"width: 600px; display: flex; justify-content: space-between; align-items: center;\">\n          <div class=\"RED\" style=\"text-align: right;\">RED</div>\n          <div class=\"BLACK\" style=\"text-align: left;\">BLACK</div>\n        </div>\n        <div class=\"fixation\">+</div>\n      ","response":"arrowleft","phase":"test","task":"choice_response","red":"ArrowLeft","trial_type":"html-keyboard-response","trial_index":129,"time_elapsed":767008,"internal_node_id":"0.0-6.0-1.0-0.11","subject_id":"03","color":"red"},{"rt":null,"stimulus":"\n          <div class=\"show_choice_container\">\n            <div class=\"card deg-0\" style=\"background: red;\"></div>\n            <p style=\"margin:0;\">Chosen option: <span class=\"RED\">RED</span></p>\n          </div>\n          <div class=\"fixation\">+</div>\n          ","response":null,"phase":"test","trial_type":"html-keyboard-response","trial_index":130,"time_elapsed":769022,"internal_node_id":"0.0-6.0-1.0-1.11","subject_id":"03"},{"rt":null,"stimulus":"<div class =\"card_deck\">\n              <div class =\"card deg-0\" style=\"background: grey\"></div>\n              <div class =\"card deg-72\" style=\"background: grey\"></div>\n              <div class =\"card deg-144\" style=\"background: grey\"></div>\n              <div class =\"card deg-216\" style=\"background: grey\"></div>\n              <div class =\"card deg-288\" style=\"background: grey\"></div>\n            </div>\n            <div class=\"fixation\">+</div>","response":null,"phase":"test","trial_type":"html-keyboard-response","trial_index":131,"time_elapsed":771023,"internal_node_id":"0.0-6.0-1.0-2.11-0.11","subject_id":"03"},{"rt":null,"stimulus":"<div class =\"card_deck\">\n              <div class =\"card deg-0\" style=\"background: black\"></div>\n              <div class =\"card deg-72\" style=\"background: grey\"></div>\n              <div class =\"card deg-144\" style=\"background: grey\"></div>\n              <div class =\"card deg-216\" style=\"background: grey\"></div>\n              <div class =\"card deg-288\" style=\"background: grey\"></div>\n            </div>\n            <div class=\"fixation\">+</div>\n            <div class=\"eegtrigger\"></div>","response":null,"phase":"test","task":"reveal","eeg_event_id":61,"card":1,"color":"black","sequence_id":2,"outcome":0,"catch_n":0,"participant_choice":"red","card_value":0,"wins_so_far":0,"trial_type":"html-keyboard-response","trial_index":132,"time_elapsed":774039,"internal_node_id":"0.0-6.0-1.0-2.11-1.11","subject_id":"03"},{"rt":null,"stimulus":"<div class =\"card_deck\">\n              <div class =\"card deg-0\" style=\"background: black\"></div>\n              <div class =\"card deg-72\" style=\"background: red\"></div>\n              <div class =\"card deg-144\" style=\"background: grey\"></div>\n              <div class =\"card deg-216\" style=\"background: grey\"></div>\n              <div class =\"card deg-288\" style=\"background: grey\"></div>\n            </div>\n            <div class=\"fixation\">+</div>\n            <div class=\"eegtrigger\"></div>","response":null,"phase":"test","task":"reveal","eeg_event_id":62,"card":2,"color":"red","sequence_id":2,"outcome":0,"catch_n":0,"participant_choice":"red","card_value":1,"wins_so_far":0,"trial_type":"html-keyboard-response","trial_index":133,"time_elapsed":777041,"internal_node_id":"0.0-6.0-1.0-2.11-2.11","subject_id":"03"},{"rt":null,"stimulus":"<div class =\"card_deck\">\n              <div class =\"card deg-0\" style=\"background: black\"></div>\n              <div class =\"card deg-72\" style=\"background: red\"></div>\n              <div class =\"card deg-144\" style=\"background: red\"></div>\n              <div class =\"card deg-216\" style=\"background: grey\"></div>\n              <div class =\"card deg-288\" style=\"background: grey\"></div>\n            </div>\n            <div class=\"fixation\">+</div>\n            <div class=\"eegtrigger\"></div>","response":null,"phase":"test","task":"reveal","eeg_event_id":63,"card":3,"color":"red","sequence_id":2,"outcome":0,"catch_n":0,"participant_choice":"red","card_value":1,"wins_so_far":1,"trial_type":"html-keyboard-response","trial_index":134,"time_elapsed":780057,"internal_node_id":"0.0-6.0-1.0-2.11-3.11","subject_id":"03"},{"rt":null,"stimulus":"<div class =\"card_deck\">\n              <div class =\"card deg-0\" style=\"background: black\"></div>\n              <div class =\"card deg-72\" style=\"background: red\"></div>\n              <div class =\"card deg-144\" style=\"background: red\"></div>\n              <div class =\"card deg-216\" style=\"background: red\"></div>\n              <div class =\"card deg-288\" style=\"background: grey\"></div>\n            </div>\n            <div class=\"fixation\">+</div>\n            <div class=\"eegtrigger\"></div>","response":null,"phase":"test","task":"reveal","eeg_event_id":64,"card":4,"color":"red","sequence_id":2,"outcome":0,"catch_n":0,"participant_choice":"red","card_value":1,"wins_so_far":2,"trial_type":"html-keyboard-response","trial_index":135,"time_elapsed":783073,"internal_node_id":"0.0-6.0-1.0-2.11-4.11","subject_id":"03"},{"rt":null,"stimulus":"<div class =\"card_deck\">\n              <div class =\"card deg-0\" style=\"background: black\"></div>\n              <div class =\"card deg-72\" style=\"background: red\"></div>\n              <div class =\"card deg-144\" style=\"background: red\"></div>\n              <div class =\"card deg-216\" style=\"background: red\"></div>\n              <div class =\"card deg-288\" style=\"background: red\"></div>\n            </div>\n            <div class=\"fixation\">+</div>\n            <div class=\"eegtrigger\"></div>","response":null,"phase":"test","task":"reveal","eeg_event_id":65,"card":5,"color":"red","sequence_id":2,"outcome":0,"catch_n":0,"participant_choice":"red","card_value":1,"wins_so_far":3,"trial_type":"html-keyboard-response","trial_index":136,"time_elapsed":786090,"internal_node_id":"0.0-6.0-1.0-2.11-5.11","subject_id":"03"},{"rt":null,"stimulus":"<p>You won 20 cents!</p>","response":null,"phase":"test","trial_type":"html-keyboard-response","trial_index":137,"time_elapsed":788106,"internal_node_id":"0.0-6.0-1.0-3.11","subject_id":"03"},{"rt":1702,"stimulus":"\n        <div class=\"choice_container\" style=\"width: 600px; display: flex; justify-content: space-between; align-items: center;\">\n          <div class=\"RED\" style=\"text-align: right;\">RED</div>\n          <div class=\"BLACK\" style=\"text-align: left;\">BLACK</div>\n        </div>\n        <div class=\"fixation\">+</div>\n      ","response":"arrowright","phase":"test","task":"choice_response","red":"ArrowLeft","trial_type":"html-keyboard-response","trial_index":138,"time_elapsed":789809,"internal_node_id":"0.0-6.0-1.0-0.12","subject_id":"03","color":"black"},{"rt":null,"stimulus":"\n          <div class=\"show_choice_container\">\n            <div class=\"card deg-0\" style=\"background: black;\"></div>\n            <p style=\"margin:0;\">Chosen option: <span class=\"BLACK\">BLACK</span></p>\n          </div>\n          <div class=\"fixation\">+</div>\n          ","response":null,"phase":"test","trial_type":"html-keyboard-response","trial_index":139,"time_elapsed":791822,"internal_node_id":"0.0-6.0-1.0-1.12","subject_id":"03"},{"rt":null,"stimulus":"<div class =\"card_deck\">\n              <div class =\"card deg-0\" style=\"background: grey\"></div>\n              <div class =\"card deg-72\" style=\"background: grey\"></div>\n              <div class =\"card deg-144\" style=\"background: grey\"></div>\n              <div class =\"card deg-216\" style=\"background: grey\"></div>\n              <div class =\"card deg-288\" style=\"background: grey\"></div>\n            </div>\n            <div class=\"fixation\">+</div>","response":null,"phase":"test","trial_type":"html-keyboard-response","trial_index":140,"time_elapsed":793838,"internal_node_id":"0.0-6.0-1.0-2.12-0.12","subject_id":"03"},{"rt":null,"stimulus":"<div class =\"card_deck\">\n              <div class =\"card deg-0\" style=\"background: red\"></div>\n              <div class =\"card deg-72\" style=\"background: grey\"></div>\n              <div class =\"card deg-144\" style=\"background: grey\"></div>\n              <div class =\"card deg-216\" style=\"background: grey\"></div>\n              <div class =\"card deg-288\" style=\"background: grey\"></div>\n            </div>\n            <div class=\"fixation\">+</div>\n            <div class=\"eegtrigger\"></div>","response":null,"phase":"test","task":"reveal","eeg_event_id":66,"card":1,"color":"red","sequence_id":20,"outcome":1,"catch_n":0,"participant_choice":"black","card_value":0,"wins_so_far":0,"trial_type":"html-keyboard-response","trial_index":141,"time_elapsed":796840,"internal_node_id":"0.0-6.0-1.0-2.12-1.12","subject_id":"03"},{"rt":null,"stimulus":"<div class =\"card_deck\">\n              <div class =\"card deg-0\" style=\"background: red\"></div>\n              <div class =\"card deg-72\" style=\"background: red\"></div>\n              <div class =\"card deg-144\" style=\"background: grey\"></div>\n              <div class =\"card deg-216\" style=\"background: grey\"></div>\n              <div class =\"card deg-288\" style=\"background: grey\"></div>\n            </div>\n            <div class=\"fixation\">+</div>\n            <div class=\"eegtrigger\"></div>","response":null,"phase":"test","task":